Application:, Trigno Discover (1.7.0)
Date/Time:, 11/4/2024 10:23:56 AM
Collection Length (seconds):, 12.1365
Avanti Sensor 0 (64624), , Avanti Sensor 2 (64680)
sensor mode: 40, , sensor mode: 609
EMG 1 Time Series (s), EMG 1 (mV), ACC X Time Series (s), ACC X (G), ACC Y Time Series (s), ACC Y (G), ACC Z Time Series (s), ACC Z (G), GYRO X Time Series (s), GYRO X (deg/s), GYRO Y Time Series (s), GYRO Y (deg/s), GYRO Z Time Series (s), GYRO Z (deg/s)
, 2148.1481 Hz, , 370.3704 Hz, , 370.3704 Hz, , 370.3704 Hz, , 370.3704 Hz, , 370.3704 Hz, , 370.3704 Hz
0, -0.0120851, 0, 0.4677734, 0, -0.7407227, 0, 0.4990234, 0, -10.4878054, 0, 7.8048782, 0, -16.4634151
0.0004655, -0.0129244, 0.0027, 0.4682617, 0.0027, -0.7333984, 0.0027, 0.4985352, 0.0027, -10.6707315, 0.0027, 8.9024391, 0.0027, -16.4634151
0.000931, -0.0149386, 0.0054, 0.4692383, 0.0054, -0.7294922, 0.0054, 0.4990234, 0.0054, -10.6097565, 0.0054, 10.2439022, 0.0054, -16.2195129
0.0013966, -0.0159457, 0.0081, 0.4677734, 0.0081, -0.7250977, 0.0081, 0.5014648, 0.0081, -10.4268293, 0.0081, 11.1585369, 0.0081, -16.0975609
0.0018621, -0.0146029, 0.0108, 0.4731445, 0.0108, -0.7202148, 0.0108, 0.5019531, 0.0108, -9.8780489, 0.0108, 11.7073174, 0.0108, -16.0365849
0.0023276, -0.011078, 0.0135, 0.472168, 0.0135, -0.7172852, 0.0135, 0.4980469, 0.0135, -9.9390249, 0.0135, 11.7682934, 0.0135, -16.2195129
0.0027931, -0.008896, 0.0162, 0.465332, 0.0162, -0.7143555, 0.0162, 0.4951172, 0.0162, -9.3292685, 0.0162, 11.6463413, 0.0162, -16.7073174
0.0032586, -0.008896, 0.0189, 0.4536133, 0.0189, -0.7050781, 0.0189, 0.4941406, 0.0189, -9.2682924, 0.0189, 11.6463413, 0.0189, -16.5243912
0.0037241, -0.0090639, 0.0216, 0.4550781, 0.0216, -0.6972656, 0.0216, 0.4960938, 0.0216, -8.9634151, 0.0216, 11.1585369, 0.0216, -16.2195129
0.0041897, -0.0090639, 0.0243, 0.4521484, 0.0243, -0.6860352, 0.0243, 0.4912109, 0.0243, -8.4146347, 0.0243, 10.4268293, 0.0243, -16.4024391
0.0046552, -0.0092317, 0.027, 0.4545898, 0.027, -0.6772461, 0.027, 0.4921875, 0.027, -8.1707315, 0.027, 10.5487804, 0.027, -16.3414631
0.0051207, -0.0090639, 0.0297, 0.4692383, 0.0297, -0.6645508, 0.0297, 0.4868164, 0.0297, -7.8658538, 0.0297, 10.5487804, 0.0297, -16.3414631
0.0055862, -0.0095674, 0.0324, 0.4726562, 0.0324, -0.6572266, 0.0324, 0.4873047, 0.0324, -7.3170733, 0.0324, 10.9146347, 0.0324, -16.4634151
0.0060517, -0.0104067, 0.0351, 0.4814453, 0.0351, -0.6455078, 0.0351, 0.4951172, 0.0351, -6.890244, 0.0351, 11.0365858, 0.0351, -17.3170738
0.0065172, -0.0102388, 0.0378, 0.480957, 0.0378, -0.6455078, 0.0378, 0.4995117, 0.0378, -6.3414636, 0.0378, 10.7926836, 0.0378, -17.5
0.0069828, -0.0082246, 0.0405, 0.4780273, 0.0405, -0.6386719, 0.0405, 0.5039062, 0.0405, -5.2439027, 0.0405, 10.8536587, 0.0405, -17.3780499
0.0074483, -0.0065461, 0.0432, 0.4716797, 0.0432, -0.6254883, 0.0432, 0.503418, 0.0432, -5.3658538, 0.0432, 11.1585369, 0.0432, -17.560976
0.0079138, -0.0077211, 0.0459, 0.465332, 0.0459, -0.6201172, 0.0459, 0.5029297, 0.0459, -5.1219511, 0.0459, 11.7073174, 0.0459, -17.1341476
0.0083793, -0.0099031, 0.0486, 0.4624023, 0.0486, -0.6123047, 0.0486, 0.4970703, 0.0486, -4.8780489, 0.0486, 12.3780489, 0.0486, -16.9512196
0.0088448, -0.0109102, 0.0513, 0.4550781, 0.0513, -0.6083984, 0.0513, 0.4887695, 0.0513, -4.5731707, 0.0513, 13.2926836, 0.0513, -17.2560978
0.0093103, -0.0109102, 0.054, 0.4506836, 0.054, -0.59375, 0.054, 0.4907227, 0.054, -4.8780489, 0.054, 13.3536587, 0.054, -16.8902435
0.0097759, -0.0119173, 0.0567, 0.4482422, 0.0567, -0.5908203, 0.0567, 0.4892578, 0.0567, -4.390244, 0.0567, 13.6585369, 0.0567, -17.3170738
0.0102414, -0.0105745, 0.0594, 0.4375, 0.0594, -0.5883789, 0.0594, 0.4838867, 0.0594, -4.2682929, 0.0594, 13.1707315, 0.0594, -17.5
0.0107069, -0.0070497, 0.0621, 0.4331055, 0.0621, -0.5908203, 0.0621, 0.4804688, 0.0621, -3.5365853, 0.0621, 11.7682934, 0.0621, -17.7439022
0.0111724, -0.003357, 0.0648, 0.4379883, 0.0648, -0.5927734, 0.0648, 0.480957, 0.0648, -3.1707318, 0.0648, 11.341464, 0.0648, -17.5
0.0116379, -0.0035248, 0.0675, 0.4335938, 0.0675, -0.5976562, 0.0675, 0.4775391, 0.0675, -2.6829269, 0.0675, 10.4268293, 0.0675, -17.9878044
0.0121034, -0.005539, 0.0702, 0.440918, 0.0702, -0.6044922, 0.0702, 0.4794922, 0.0702, -2.6829269, 0.0702, 10, 0.0702, -18.1097565
0.012569, -0.0043641, 0.0729, 0.4399414, 0.0729, -0.6152344, 0.0729, 0.4775391, 0.0729, -2.195122, 0.0729, 8.5975609, 0.0729, -18.2317085
0.0130345, -0.002182, 0.0756, 0.4360352, 0.0756, -0.6235352, 0.0756, 0.4868164, 0.0756, -1.5243902, 0.0756, 7.5609756, 0.0756, -18.2317085
0.0135, -0.0013428, 0.0783, 0.4360352, 0.0783, -0.6318359, 0.0783, 0.4858398, 0.0783, -1.5853659, 0.0783, 7.0731707, 0.0783, -17.8048782
0.0139655, -0.0038605, 0.081, 0.4291992, 0.081, -0.640625, 0.081, 0.4858398, 0.081, -1.5243902, 0.081, 5.9146342, 0.081, -17.439024
0.014431, -0.0075532, 0.0837, 0.4316406, 0.0837, -0.6474609, 0.0837, 0.4868164, 0.0837, -1.5243902, 0.0837, 5.670732, 0.0837, -17.2560978
0.0148966, -0.0095674, 0.0864, 0.4370117, 0.0864, -0.6606445, 0.0864, 0.4946289, 0.0864, -1.402439, 0.0864, 5.1829271, 0.0864, -17.1951218
0.0153621, -0.012253, 0.0891, 0.4355469, 0.0891, -0.6655273, 0.0891, 0.4956055, 0.0891, -1.3414634, 0.0891, 4.6951222, 0.0891, -17.1341476
0.0158276, -0.012253, 0.0918, 0.4458008, 0.0918, -0.6816406, 0.0918, 0.5, 0.0918, -1.5243902, 0.0918, 5.3658538, 0.0918, -17.0121956
0.0162931, -0.008896, 0.0945, 0.4663086, 0.0945, -0.7001953, 0.0945, 0.5083008, 0.0945, -1.7073171, 0.0945, 5.670732, 0.0945, -17.0121956
0.0167586, -0.0065461, 0.0972, 0.4726562, 0.0972, -0.7089844, 0.0972, 0.5117188, 0.0972, -1.8292683, 0.0972, 7.7439027, 0.0972, -16.8902435
0.0172241, -0.0068818, 0.0999, 0.4907227, 0.0999, -0.7255859, 0.0999, 0.5209961, 0.0999, -2.1341465, 0.0999, 8.2317076, 0.0999, -17.3170738
0.0176897, -0.0095674, 0.1026, 0.4951172, 0.1026, -0.7358398, 0.1026, 0.5244141, 0.1026, -2.195122, 0.1026, 9.6951218, 0.1026, -17.0121956
0.0181552, -0.012253, 0.1053, 0.5083008, 0.1053, -0.7602539, 0.1053, 0.5283203, 0.1053, -2.3780489, 0.1053, 10.6097565, 0.1053, -16.7073174
0.0186207, -0.0127565, 0.108, 0.5151367, 0.108, -0.7680664, 0.108, 0.5307617, 0.108, -3.7195122, 0.108, 13.1707315, 0.108, -16.1585369
0.0190862, -0.0125887, 0.1107, 0.5258789, 0.1107, -0.7856445, 0.1107, 0.5292969, 0.1107, -4.2073174, 0.1107, 14.4512196, 0.1107, -15.3658543
0.0195517, -0.012253, 0.1134, 0.5283203, 0.1134, -0.7915039, 0.1134, 0.534668, 0.1134, -4.9390244, 0.1134, 17.6219521, 0.1134, -14.3902445
0.0200172, -0.0107424, 0.1161, 0.5297852, 0.1161, -0.8115234, 0.1161, 0.5366211, 0.1161, -5.3658538, 0.1161, 18.9634151, 0.1161, -13.3536587
0.0204828, -0.0105745, 0.1188, 0.53125, 0.1188, -0.8173828, 0.1188, 0.5351562, 0.1188, -6.4024391, 0.1188, 22.1341476, 0.1188, -12.1951218
0.0209483, -0.0109102, 0.1215, 0.5371094, 0.1215, -0.8227539, 0.1215, 0.5336914, 0.1215, -7.3170733, 0.1215, 24.0853672, 0.1215, -11.1585369
0.0214138, -0.0119173, 0.1242, 0.5380859, 0.1242, -0.8300781, 0.1242, 0.5380859, 0.1242, -7.5, 0.1242, 24.9390259, 0.1242, -10.8536587
0.0218793, -0.011078, 0.1269, 0.5405273, 0.1269, -0.8457031, 0.1269, 0.5454102, 0.1269, -7.5609756, 0.1269, 26.4634151, 0.1269, -10
0.0223448, -0.0117494, 0.1296, 0.5380859, 0.1296, -0.8452148, 0.1296, 0.5473633, 0.1296, -7.3780489, 0.1296, 27.0121956, 0.1296, -9.5731707
0.0228103, -0.0129244, 0.1323, 0.5351562, 0.1323, -0.8515625, 0.1323, 0.5532227, 0.1323, -7.3170733, 0.1323, 27.9878063, 0.1323, -9.3902445
0.0232759, -0.0137636, 0.135, 0.5327148, 0.135, -0.8515625, 0.135, 0.5556641, 0.135, -7.5609756, 0.135, 28.0487804, 0.135, -9.0243902
0.0237414, -0.0151064, 0.1377, 0.5307617, 0.1377, -0.8481445, 0.1377, 0.5576172, 0.1377, -7.6219516, 0.1377, 28.5975609, 0.1377, -9.0243902
0.0242069, -0.0152743, 0.1404, 0.5249023, 0.1404, -0.8374023, 0.1404, 0.5551758, 0.1404, -7.8048782, 0.1404, 28.6585369, 0.1404, -8.719512
0.0246724, -0.01561, 0.1431, 0.5209961, 0.1431, -0.8374023, 0.1431, 0.5517578, 0.1431, -8.2317076, 0.1431, 29.1463413, 0.1431, -8.841464
0.0251379, -0.01561, 0.1458, 0.5205078, 0.1458, -0.8222656, 0.1458, 0.5537109, 0.1458, -8.0487804, 0.1458, 29.8170738, 0.1458, -8.5365858
0.0256034, -0.0146029, 0.1485, 0.5239258, 0.1485, -0.8178711, 0.1485, 0.5527344, 0.1485, -7.8658538, 0.1485, 30.6097565, 0.1485, -8.1707315
0.026069, -0.0149386, 0.1512, 0.5283203, 0.1512, -0.8037109, 0.1512, 0.5429688, 0.1512, -7.9268293, 0.1512, 30.7926846, 0.1512, -8.4756098
0.0265345, -0.0142672, 0.1539, 0.53125, 0.1539, -0.7944336, 0.1539, 0.5410156, 0.1539, -7.8658538, 0.1539, 30.9756107, 0.1539, -9.0243902
0.027, -0.0135958, 0.1566, 0.5385742, 0.1566, -0.7832031, 0.1566, 0.5400391, 0.1566, -7.9878049, 0.1566, 30.5487804, 0.1566, -9.2073174
0.0274655, -0.0127565, 0.1593, 0.5380859, 0.1593, -0.7763672, 0.1593, 0.5375977, 0.1593, -7.9878049, 0.1593, 29.7560978, 0.1593, -9.2682924
0.027931, -0.0125887, 0.162, 0.5351562, 0.162, -0.7695312, 0.162, 0.53125, 0.162, -7.9268293, 0.162, 29.0243912, 0.162, -9.5731707
0.0283966, -0.012253, 0.1647, 0.5366211, 0.1647, -0.7666016, 0.1647, 0.5351562, 0.1647, -7.5609756, 0.1647, 27.1951218, 0.1647, -9.5121956
0.0288621, -0.0112459, 0.1674, 0.5327148, 0.1674, -0.7597656, 0.1674, 0.5390625, 0.1674, -7.3170733, 0.1674, 26.0975609, 0.1674, -9.8170738
0.0293276, -0.0097353, 0.1701, 0.5375977, 0.1701, -0.7548828, 0.1701, 0.5385742, 0.1701, -6.9512196, 0.1701, 25.7317085, 0.1701, -9.8170738
0.0297931, -0.0082246, 0.1728, 0.5454102, 0.1728, -0.7441406, 0.1728, 0.5375977, 0.1728, -6.1585369, 0.1728, 24.9390259, 0.1728, -10.060976
0.0302586, -0.0062104, 0.1755, 0.5444336, 0.1755, -0.7353516, 0.1755, 0.5341797, 0.1755, -5.7926831, 0.1755, 24.5731716, 0.1755, -10.4268293
0.0307241, -0.0040284, 0.1782, 0.5444336, 0.1782, -0.7236328, 0.1782, 0.5307617, 0.1782, -4.6341462, 0.1782, 24.0243912, 0.1782, -11.1585369
0.0311897, -0.0030213, 0.1809, 0.5405273, 0.1809, -0.7216797, 0.1809, 0.53125, 0.1809, -3.7195122, 0.1809, 23.6585369, 0.1809, -11.4634151
0.0316552, -0.005539, 0.1836, 0.5371094, 0.1836, -0.7109375, 0.1836, 0.5292969, 0.1836, -3.1707318, 0.1836, 23.4146347, 0.1836, -12.0731707
0.0321207, -0.0070497, 0.1863, 0.5410156, 0.1863, -0.6967773, 0.1863, 0.5297852, 0.1863, -2.9878049, 0.1863, 23.5365868, 0.1863, -12.2560978
0.0325862, -0.0057069, 0.189, 0.5332031, 0.189, -0.6948242, 0.189, 0.5327148, 0.189, -1.7073171, 0.189, 23.5975609, 0.189, -12.7439032
0.0330517, -0.005539, 0.1917, 0.5234375, 0.1917, -0.6855469, 0.1917, 0.5375977, 0.1917, -1.1585366, 0.1917, 23.6585369, 0.1917, -12.8048782
0.0335172, -0.0065461, 0.1944, 0.5180664, 0.1944, -0.6811523, 0.1944, 0.5390625, 0.1944, -0.1829268, 0.1944, 22.5, 0.1944, -12.9878054
0.0339828, -0.0085603, 0.1971, 0.5092773, 0.1971, -0.6743164, 0.1971, 0.5415039, 0.1971, 0.3048781, 0.1971, 22.2560978, 0.1971, -13.1097565
0.0344483, -0.0092317, 0.1998, 0.5102539, 0.1998, -0.671875, 0.1998, 0.5449219, 0.1998, 0.3658537, 0.1998, 21.2195129, 0.1998, -13.1097565
0.0349138, -0.0109102, 0.2025, 0.5083008, 0.2025, -0.671875, 0.2025, 0.5483398, 0.2025, 0.2439024, 0.2025, 21.3414631, 0.2025, -13.1707315
0.0353793, -0.012253, 0.2052, 0.5048828, 0.2052, -0.6723633, 0.2052, 0.550293, 0.2052, 0.9146342, 0.2052, 21.7682934, 0.2052, -13.2926836
0.0358448, -0.0117494, 0.2079, 0.515625, 0.2079, -0.6655273, 0.2079, 0.5527344, 0.2079, 1.2804878, 0.2079, 21.9512196, 0.2079, -13.1097565
0.0363103, -0.0102388, 0.2106, 0.5151367, 0.2106, -0.6650391, 0.2106, 0.5483398, 0.2106, 2.3170731, 0.2106, 22.6829281, 0.2106, -13.2926836
0.0367759, -0.008896, 0.2133, 0.527832, 0.2133, -0.6586914, 0.2133, 0.546875, 0.2133, 2.5, 0.2133, 24.3292694, 0.2133, -13.1707315
0.0372414, -0.008896, 0.216, 0.5317383, 0.216, -0.6557617, 0.216, 0.5415039, 0.216, 2.2560976, 0.216, 24.5731716, 0.216, -13.5975609
0.0377069, -0.008896, 0.2187, 0.5297852, 0.2187, -0.65625, 0.2187, 0.5410156, 0.2187, 2.6829269, 0.2187, 25.2439022, 0.2187, -13.5975609
0.0381724, -0.0075532, 0.2214, 0.5249023, 0.2214, -0.6591797, 0.2214, 0.5380859, 0.2214, 2.6829269, 0.2214, 25.2439022, 0.2214, -13.4146347
0.0386379, -0.0075532, 0.2241, 0.5117188, 0.2241, -0.6621094, 0.2241, 0.5419922, 0.2241, 2.804878, 0.2241, 25.2439022, 0.2241, -12.6219511
0.0391034, -0.010071, 0.2268, 0.5058594, 0.2268, -0.6557617, 0.2268, 0.5424805, 0.2268, 2.8658538, 0.2268, 25, 0.2268, -11.8902445
0.039569, -0.0109102, 0.2295, 0.4960938, 0.2295, -0.6547852, 0.2295, 0.5361328, 0.2295, 2.6829269, 0.2295, 24.9390259, 0.2295, -10.9146347
0.0400345, -0.0095674, 0.2322, 0.4833984, 0.2322, -0.6557617, 0.2322, 0.5361328, 0.2322, 2.6829269, 0.2322, 24.4512196, 0.2322, -10.4268293
0.0405, -0.0085603, 0.2349, 0.4790039, 0.2349, -0.6547852, 0.2349, 0.5356445, 0.2349, 2.7439024, 0.2349, 23.6585369, 0.2349, -9.8170738
0.0409655, -0.0073854, 0.2376, 0.4765625, 0.2376, -0.6538086, 0.2376, 0.5351562, 0.2376, 2.9268293, 0.2376, 22.9268303, 0.2376, -9.2073174
0.041431, -0.0119173, 0.2403, 0.4785156, 0.2403, -0.6547852, 0.2403, 0.5332031, 0.2403, 2.6829269, 0.2403, 22.6219521, 0.2403, -8.719512
0.0418966, -0.0305486, 0.243, 0.4824219, 0.243, -0.6494141, 0.243, 0.5283203, 0.243, 2.7439024, 0.243, 22.560976, 0.243, -8.5365858
0.0423621, -0.0488441, 0.2457, 0.4829102, 0.2457, -0.6508789, 0.2457, 0.5292969, 0.2457, 3.0487804, 0.2457, 22.2560978, 0.2457, -8.719512
0.0428276, -0.0542153, 0.2484, 0.4863281, 0.2484, -0.6542969, 0.2484, 0.5288086, 0.2484, 3.0487804, 0.2484, 22.1951218, 0.2484, -8.4146347
0.0432931, -0.0496834, 0.2511, 0.4833984, 0.2511, -0.659668, 0.2511, 0.53125, 0.2511, 3.2317073, 0.2511, 22.3780499, 0.2511, -8.2317076
0.0437586, -0.0402838, 0.2538, 0.484375, 0.2538, -0.6552734, 0.2538, 0.53125, 0.2538, 3.1707318, 0.2538, 23.0487804, 0.2538, -7.9878049
0.0442241, -0.0273594, 0.2565, 0.4848633, 0.2565, -0.6538086, 0.2565, 0.5302734, 0.2565, 3.3536587, 0.2565, 23.2317085, 0.2565, -7.6829271
0.0446897, -0.0070497, 0.2592, 0.480957, 0.2592, -0.6523438, 0.2592, 0.5302734, 0.2592, 2.804878, 0.2592, 23.2317085, 0.2592, -7.8048782
0.0451552, 0.0166171, 0.2619, 0.4814453, 0.2619, -0.6479492, 0.2619, 0.5273438, 0.2619, 2.8658538, 0.2619, 22.9878063, 0.2619, -7.6219516
0.0456207, 0.0297093, 0.2646, 0.4760742, 0.2646, -0.6474609, 0.2646, 0.5317383, 0.2646, 2.2560976, 0.2646, 22.5, 0.2646, -7.1951222
0.0460862, 0.030045, 0.2673, 0.4760742, 0.2673, -0.6430664, 0.2673, 0.5288086, 0.2673, 1.9512196, 0.2673, 21.9512196, 0.2673, -7.0121951
0.0465517, 0.0270237, 0.27, 0.4702148, 0.27, -0.6416016, 0.27, 0.5283203, 0.27, 0.7926829, 0.27, 21.4024391, 0.27, -6.5243902
0.0470172, 0.0260166, 0.2727, 0.4702148, 0.2727, -0.6357422, 0.2727, 0.5332031, 0.2727, 0.4268293, 0.2727, 21.3414631, 0.2727, -6.280488
0.0474828, 0.026688, 0.2754, 0.4638672, 0.2754, -0.6342773, 0.2754, 0.5356445, 0.2754, 0.4878049, 0.2754, 20.3658543, 0.2754, -5.7926831
0.0479483, 0.0253452, 0.2781, 0.4575195, 0.2781, -0.6269531, 0.2781, 0.5415039, 0.2781, 0.4878049, 0.2781, 19.7560978, 0.2781, -5.4878049
0.0484138, 0.0224918, 0.2808, 0.4560547, 0.2808, -0.6313477, 0.2808, 0.5439453, 0.2808, -0.1219512, 0.2808, 18.2317085, 0.2808, -5.1829271
0.0488793, 0.0206455, 0.2835, 0.4521484, 0.2835, -0.6235352, 0.2835, 0.5419922, 0.2835, -0.4268293, 0.2835, 17.3170738, 0.2835, -4.7560978
0.0493448, 0.0186313, 0.2862, 0.4526367, 0.2862, -0.6225586, 0.2862, 0.5463867, 0.2862, -0.8536586, 0.2862, 15.060976, 0.2862, -4.2682929
0.0498103, 0.01561, 0.2889, 0.4560547, 0.2889, -0.6181641, 0.2889, 0.5478516, 0.2889, -0.9756098, 0.2889, 14.4512196, 0.2889, -4.0243902
0.0502759, 0.0112459, 0.2916, 0.4589844, 0.2916, -0.6176758, 0.2916, 0.5483398, 0.2916, -1.5243902, 0.2916, 13.1707315, 0.2916, -3.7195122
0.0507414, 0.0048676, 0.2943, 0.465332, 0.2943, -0.6103516, 0.2943, 0.5507812, 0.2943, -1.7682927, 0.2943, 12.7439032, 0.2943, -3.2926829
0.0512069, -0.0025177, 0.297, 0.4658203, 0.297, -0.6064453, 0.297, 0.5546875, 0.297, -1.9512196, 0.297, 11.280488, 0.297, -2.7439024
0.0516724, -0.0082246, 0.2997, 0.4746094, 0.2997, -0.6064453, 0.2997, 0.5571289, 0.2997, -2.4390244, 0.2997, 10.7926836, 0.2997, -2.3780489
0.0521379, -0.0125887, 0.3024, 0.4755859, 0.3024, -0.6044922, 0.3024, 0.5537109, 0.3024, -3.1707318, 0.3024, 9.5731707, 0.3024, -1.402439
0.0526034, -0.0152743, 0.3051, 0.4819336, 0.3051, -0.5981445, 0.3051, 0.5581055, 0.3051, -3.4146342, 0.3051, 9.0243902, 0.3051, -0.5487805
0.053069, -0.0182956, 0.3078, 0.4794922, 0.3078, -0.6030273, 0.3078, 0.5610352, 0.3078, -3.4146342, 0.3078, 8.719512, 0.3078, -0.1219512
0.0535345, -0.0243381, 0.3105, 0.484375, 0.3105, -0.6035156, 0.3105, 0.5541992, 0.3105, -3.8414636, 0.3105, 8.4756098, 0.3105, 0.6707317
0.054, -0.0293736, 0.3132, 0.4833984, 0.3132, -0.6005859, 0.3132, 0.5561523, 0.3132, -4.0243902, 0.3132, 8.2317076, 0.3132, 1.1585366
0.0544655, -0.0310521, 0.3159, 0.4765625, 0.3159, -0.5986328, 0.3159, 0.5556641, 0.3159, -3.9634147, 0.3159, 8.0487804, 0.3159, 2.1341465
0.054931, -0.0317235, 0.3186, 0.4770508, 0.3186, -0.5986328, 0.3186, 0.5541992, 0.3186, -3.9634147, 0.3186, 8.1097565, 0.3186, 2.4390244
0.0553966, -0.0318914, 0.3213, 0.4731445, 0.3213, -0.6010742, 0.3213, 0.5546875, 0.3213, -4.2073174, 0.3213, 7.9268293, 0.3213, 3.0487804
0.0558621, -0.0318914, 0.324, 0.4672852, 0.324, -0.5952148, 0.324, 0.5532227, 0.324, -4.0853658, 0.324, 7.5609756, 0.324, 3.4756098
0.0563276, -0.0330663, 0.3267, 0.4682617, 0.3267, -0.5932617, 0.3267, 0.5517578, 0.3267, -3.5365853, 0.3267, 6.1585369, 0.3267, 4.1463413
0.0567931, -0.0340734, 0.3294, 0.4672852, 0.3294, -0.5893555, 0.3294, 0.5493164, 0.3294, -3.1097562, 0.3294, 5.4268293, 0.3294, 4.2073174
0.0572586, -0.0345769, 0.3321, 0.4663086, 0.3321, -0.5878906, 0.3321, 0.546875, 0.3321, -3.5365853, 0.3321, 4.1463413, 0.3321, 4.5121951
0.0577241, -0.0340734, 0.3348, 0.46875, 0.3348, -0.590332, 0.3348, 0.550293, 0.3348, -3.3536587, 0.3348, 3.6585367, 0.3348, 4.6341462
0.0581897, -0.0327306, 0.3375, 0.4711914, 0.3375, -0.5893555, 0.3375, 0.5498047, 0.3375, -3.0487804, 0.3375, 2.9878049, 0.3375, 4.9390244
0.0586552, -0.0307164, 0.3402, 0.472168, 0.3402, -0.5908203, 0.3402, 0.5576172, 0.3402, -3.0487804, 0.3402, 2.4390244, 0.3402, 5.1219511
0.0591207, -0.0273594, 0.3429, 0.4736328, 0.3429, -0.5878906, 0.3429, 0.5605469, 0.3429, -2.5609756, 0.3429, 1.7073171, 0.3429, 5.1829271
0.0595862, -0.0216526, 0.3456, 0.4741211, 0.3456, -0.5927734, 0.3456, 0.5571289, 0.3456, -2.195122, 0.3456, 1.1585366, 0.3456, 5.7317076
0.0600517, -0.0135958, 0.3483, 0.4741211, 0.3483, -0.5966797, 0.3483, 0.559082, 0.3483, -2.0731707, 0.3483, 0.3048781, 0.3483, 5.8536587
0.0605172, -0.0065461, 0.351, 0.4868164, 0.351, -0.5966797, 0.351, 0.5566406, 0.351, -1.7682927, 0.351, 0.0609756, 0.351, 6.2195125
0.0609828, -0.0080568, 0.3537, 0.4838867, 0.3537, -0.6040039, 0.3537, 0.5620117, 0.3537, -1.8292683, 0.3537, 0.1219512, 0.3537, 6.5243902
0.0614483, -0.0125887, 0.3564, 0.4868164, 0.3564, -0.6079102, 0.3564, 0.5610352, 0.3564, -1.5853659, 0.3564, 0.4268293, 0.3564, 6.2195125
0.0619138, -0.0139315, 0.3591, 0.4941406, 0.3591, -0.6103516, 0.3591, 0.5629883, 0.3591, -1.2804878, 0.3591, 0.7926829, 0.3591, 6.3414636
0.0623793, -0.0167849, 0.3618, 0.4931641, 0.3618, -0.6147461, 0.3618, 0.5629883, 0.3618, -1.0365853, 0.3618, 1.097561, 0.3618, 6.7682929
0.0628448, -0.026688, 0.3645, 0.4931641, 0.3645, -0.6176758, 0.3645, 0.5649414, 0.3645, -0.7317073, 0.3645, 1.3414634, 0.3645, 6.8292685
0.0633103, -0.0280308, 0.3672, 0.4941406, 0.3672, -0.6142578, 0.3672, 0.5649414, 0.3672, 0.0609756, 0.3672, 1.5853659, 0.3672, 6.7682929
0.0637759, -0.0115816, 0.3699, 0.4921875, 0.3699, -0.6186523, 0.3699, 0.5654297, 0.3699, 0.1829268, 0.3699, 1.5243902, 0.3699, 6.9512196
0.0642414, 0.0174563, 0.3726, 0.4926758, 0.3726, -0.621582, 0.3726, 0.5664062, 0.3726, 0.2439024, 0.3726, 0.8536586, 0.3726, 6.7682929
0.0647069, 0.0387732, 0.3753, 0.4868164, 0.3753, -0.6206055, 0.3753, 0.5668945, 0.3753, 0.6097561, 0.3753, 0.9146342, 0.3753, 6.7073174
0.0651724, 0.0396124, 0.378, 0.4892578, 0.378, -0.6254883, 0.378, 0.5668945, 0.378, 1.2195122, 0.378, 0.3048781, 0.378, 6.8292685
0.0656379, 0.0273594, 0.3807, 0.4951172, 0.3807, -0.6323242, 0.3807, 0.5683594, 0.3807, 1.2804878, 0.3807, 0, 0.3807, 6.7682929
0.0661034, 0.0092317, 0.3834, 0.5, 0.3834, -0.6328125, 0.3834, 0.5712891, 0.3834, 1.5243902, 0.3834, -0.4268293, 0.3834, 6.4024391
0.066569, -0.0062104, 0.3861, 0.5087891, 0.3861, -0.6381836, 0.3861, 0.5678711, 0.3861, 2.1341465, 0.3861, -0.5487805, 0.3861, 6.7073174
0.0670345, -0.0135958, 0.3888, 0.5107422, 0.3888, -0.6430664, 0.3888, 0.5722656, 0.3888, 2.6829269, 0.3888, -0.3048781, 0.3888, 6.5243902
0.0675, -0.0125887, 0.3915, 0.5102539, 0.3915, -0.6464844, 0.3915, 0.5771484, 0.3915, 2.9268293, 0.3915, -0.1219512, 0.3915, 6.3414636
0.0679655, -0.0036927, 0.3942, 0.5107422, 0.3942, -0.6474609, 0.3942, 0.5766602, 0.3942, 3.2317073, 0.3942, 0.3048781, 0.3942, 6.7073174
0.068431, 0.0001678, 0.3969, 0.5117188, 0.3969, -0.6557617, 0.3969, 0.5825195, 0.3969, 3.4146342, 0.3969, -0.1829268, 0.3969, 6.890244
0.0688966, -0.0221561, 0.3996, 0.512207, 0.3996, -0.6557617, 0.3996, 0.5830078, 0.3996, 3.5365853, 0.3996, -0.2439024, 0.3996, 7.3170733
0.0693621, -0.0525368, 0.4023, 0.5024414, 0.4023, -0.6538086, 0.4023, 0.5825195, 0.4023, 3.5365853, 0.4023, -0.4878049, 0.4023, 7.8048782
0.0698276, -0.0532082, 0.405, 0.503418, 0.405, -0.6552734, 0.405, 0.5820312, 0.405, 3.5365853, 0.405, -0.3658537, 0.405, 7.9268293
0.0702931, -0.0236667, 0.4077, 0.496582, 0.4077, -0.6586914, 0.4077, 0.5791016, 0.4077, 3.4756098, 0.4077, -1.097561, 0.4077, 8.5975609
0.0707586, 0.0085603, 0.4104, 0.4931641, 0.4104, -0.6606445, 0.4104, 0.5791016, 0.4104, 3.4756098, 0.4104, -1.5853659, 0.4104, 8.4146347
0.0712241, 0.0288701, 0.4131, 0.4946289, 0.4131, -0.6713867, 0.4131, 0.5771484, 0.4131, 3.5975611, 0.4131, -1.5853659, 0.4131, 8.719512
0.0716897, 0.0391089, 0.4158, 0.4921875, 0.4158, -0.6733398, 0.4158, 0.5805664, 0.4158, 3.4756098, 0.4158, -1.5853659, 0.4158, 9.0853662
0.0721552, 0.043473, 0.4185, 0.4970703, 0.4185, -0.6767578, 0.4185, 0.5795898, 0.4185, 4.0853658, 0.4185, -1.7682927, 0.4185, 8.5975609
0.0726207, 0.0354162, 0.4212, 0.5068359, 0.4212, -0.6835938, 0.4212, 0.5771484, 0.4212, 3.7804878, 0.4212, -1.4634147, 0.4212, 8.5365858
0.0730862, 0.014435, 0.4239, 0.5083008, 0.4239, -0.6914062, 0.4239, 0.5766602, 0.4239, 3.9024391, 0.4239, -1.3414634, 0.4239, 8.2926826
0.0735517, -0.0048676, 0.4266, 0.5073242, 0.4266, -0.7016602, 0.4266, 0.5800781, 0.4266, 4.2682929, 0.4266, -0.7926829, 0.4266, 7.9878049
0.0740172, -0.0146029, 0.4293, 0.5058594, 0.4293, -0.7094727, 0.4293, 0.5795898, 0.4293, 4.2073174, 0.4293, 0.0609756, 0.4293, 7.8658538
0.0744828, -0.0174563, 0.432, 0.5009766, 0.432, -0.7202148, 0.432, 0.5776367, 0.432, 4.0243902, 0.432, 0.3658537, 0.432, 7.9268293
0.0749483, -0.0146029, 0.4347, 0.4985352, 0.4347, -0.7246094, 0.4347, 0.5776367, 0.4347, 4.390244, 0.4347, 0.6707317, 0.4347, 7.7439027
0.0754138, -0.0105745, 0.4374, 0.4921875, 0.4374, -0.7319336, 0.4374, 0.578125, 0.4374, 4.2682929, 0.4374, 0.7317073, 0.4374, 7.9878049
0.0758793, -0.0058747, 0.4401, 0.4863281, 0.4401, -0.7338867, 0.4401, 0.5771484, 0.4401, 4.8170733, 0.4401, 0.8536586, 0.4401, 8.0487804
0.0763448, 0.0008392, 0.4428, 0.4868164, 0.4428, -0.7436523, 0.4428, 0.578125, 0.4428, 4.4512196, 0.4428, 0.7926829, 0.4428, 7.9878049
0.0768103, 0.0050355, 0.4455, 0.4868164, 0.4455, -0.746582, 0.4455, 0.5761719, 0.4455, 4.2073174, 0.4455, 0.6097561, 0.4455, 7.9268293
0.0772759, 0.0045319, 0.4482, 0.4824219, 0.4482, -0.7573242, 0.4482, 0.5776367, 0.4482, 4.3292685, 0.4482, -0.4268293, 0.4482, 7.8048782
0.0777414, 0.0011749, 0.4509, 0.4804688, 0.4509, -0.7602539, 0.4509, 0.5791016, 0.4509, 4.5731707, 0.4509, -0.9756098, 0.4509, 7.9878049
0.0782069, -0.0030213, 0.4536, 0.4770508, 0.4536, -0.7685547, 0.4536, 0.5849609, 0.4536, 4.3292685, 0.4536, -2.3780489, 0.4536, 8.1097565
0.0786724, -0.0065461, 0.4563, 0.4736328, 0.4563, -0.7714844, 0.4563, 0.5820312, 0.4563, 4.390244, 0.4563, -3.2926829, 0.4563, 8.3536587
0.0791379, -0.0105745, 0.459, 0.4760742, 0.459, -0.7749023, 0.459, 0.5791016, 0.459, 3.5975611, 0.459, -4.5121951, 0.459, 8.5975609
0.0796034, -0.0139315, 0.4617, 0.4794922, 0.4617, -0.7763672, 0.4617, 0.5859375, 0.4617, 3.2317073, 0.4617, -4.9390244, 0.4617, 9.0243902
0.080069, -0.01561, 0.4644, 0.4775391, 0.4644, -0.7836914, 0.4644, 0.5849609, 0.4644, 2.8658538, 0.4644, -5.0609756, 0.4644, 9.1463413
0.0805345, -0.0179599, 0.4671, 0.4853516, 0.4671, -0.78125, 0.4671, 0.5820312, 0.4671, 2.7439024, 0.4671, -5.1219511, 0.4671, 9.5121956
0.081, -0.0201419, 0.4698, 0.4853516, 0.4698, -0.784668, 0.4698, 0.5786133, 0.4698, 2.195122, 0.4698, -5.3048782, 0.4698, 9.5731707
0.0814655, -0.0201419, 0.4725, 0.4882812, 0.4725, -0.7895508, 0.4725, 0.578125, 0.4725, 1.9512196, 0.4725, -5.3658538, 0.4725, 9.6951218
0.081931, -0.0204776, 0.4752, 0.487793, 0.4752, -0.7905273, 0.4752, 0.5786133, 0.4752, 1.7682927, 0.4752, -5.9146342, 0.4752, 9.8170738
0.0823966, -0.0243381, 0.4779, 0.4819336, 0.4779, -0.7944336, 0.4779, 0.5776367, 0.4779, 1.5853659, 0.4779, -5.9756098, 0.4779, 9.8170738
0.0828621, -0.0276951, 0.4806, 0.4775391, 0.4806, -0.7924805, 0.4806, 0.5786133, 0.4806, 1.6463414, 0.4806, -5.9146342, 0.4806, 10.1829271
0.0833276, -0.0281987, 0.4833, 0.4760742, 0.4833, -0.7978516, 0.4833, 0.5839844, 0.4833, 1.3414634, 0.4833, -5.7317076, 0.4833, 10.2439022
0.0837931, -0.0251774, 0.486, 0.4736328, 0.486, -0.7978516, 0.486, 0.5830078, 0.486, 0.9146342, 0.486, -5.609756, 0.486, 10.3658543
0.0842586, -0.0229953, 0.4887, 0.4648438, 0.4887, -0.8007812, 0.4887, 0.5839844, 0.4887, 1.3414634, 0.4887, -4.8170733, 0.4887, 10.1829271
0.0847241, -0.0219883, 0.4914, 0.465332, 0.4914, -0.800293, 0.4914, 0.5791016, 0.4914, 1.6463414, 0.4914, -4.6951222, 0.4914, 10.3658543
0.0851897, -0.0224918, 0.4941, 0.4643555, 0.4941, -0.7993164, 0.4941, 0.5761719, 0.4941, 2.0731707, 0.4941, -4.2073174, 0.4941, 9.9390249
0.0856552, -0.0283665, 0.4968, 0.4711914, 0.4968, -0.7998047, 0.4968, 0.5761719, 0.4968, 2.2560976, 0.4968, -3.9024391, 0.4968, 9.6951218
0.0861207, -0.0387732, 0.4995, 0.4697266, 0.4995, -0.8007812, 0.4995, 0.5717773, 0.4995, 2.5, 0.4995, -3.5975611, 0.4995, 8.780488
0.0865862, -0.0454871, 0.5022, 0.46875, 0.5022, -0.8017578, 0.5022, 0.5698242, 0.5022, 2.6829269, 0.5022, -3.2926829, 0.5022, 8.5365858
0.0870517, -0.0428016, 0.5049, 0.4707031, 0.5049, -0.7998047, 0.5049, 0.5751953, 0.5049, 3.2317073, 0.5049, -2.4390244, 0.5049, 8.2317076
0.0875172, -0.036759, 0.5076, 0.4702148, 0.5076, -0.7988281, 0.5076, 0.5717773, 0.5076, 3.2926829, 0.5076, -2.1341465, 0.5076, 7.9268293
0.0879828, -0.0307164, 0.5103, 0.465332, 0.5103, -0.7900391, 0.5103, 0.5708008, 0.5103, 3.5975611, 0.5103, -1.3414634, 0.5103, 7.8658538
0.0884483, -0.0236667, 0.513, 0.4677734, 0.513, -0.7841797, 0.513, 0.565918, 0.513, 3.6585367, 0.513, -0.9756098, 0.513, 7.8658538
0.0889138, -0.0157778, 0.5157, 0.4663086, 0.5157, -0.7832031, 0.5157, 0.5664062, 0.5157, 4.2073174, 0.5157, -0.7317073, 0.5157, 7.4390244
0.0893793, -0.0073854, 0.5184, 0.4619141, 0.5184, -0.7758789, 0.5184, 0.5649414, 0.5184, 4.2682929, 0.5184, -0.3048781, 0.5184, 7.5609756
0.0898448, -0.0025177, 0.5211, 0.4638672, 0.5211, -0.7714844, 0.5211, 0.5639648, 0.5211, 3.9634147, 0.5211, -0.9756098, 0.5211, 7.1951222
0.0903103, -0.0001678, 0.5238, 0.4580078, 0.5238, -0.7666016, 0.5238, 0.5581055, 0.5238, 3.9024391, 0.5238, -1.097561, 0.5238, 7.3170733
0.0907759, 0.0008392, 0.5265, 0.4521484, 0.5265, -0.7612305, 0.5265, 0.5546875, 0.5265, 3.7804878, 0.5265, -1.0365853, 0.5265, 7.1341467
0.0912414, 0.0001678, 0.5292, 0.4516602, 0.5292, -0.7509766, 0.5292, 0.5571289, 0.5292, 3.9024391, 0.5292, -0.9756098, 0.5292, 7.1341467
0.0917069, -0.0025177, 0.5319, 0.4511719, 0.5319, -0.7480469, 0.5319, 0.5571289, 0.5319, 3.6585367, 0.5319, -0.7926829, 0.5319, 7.3780489
0.0921724, -0.0045319, 0.5346, 0.4482422, 0.5346, -0.7382812, 0.5346, 0.5517578, 0.5346, 3.9024391, 0.5346, -0.4268293, 0.5346, 7.0731707
0.0926379, -0.0048676, 0.5373, 0.4487305, 0.5373, -0.7333984, 0.5373, 0.5517578, 0.5373, 3.5975611, 0.5373, -0.5487805, 0.5373, 7.3170733
0.0931034, -0.0058747, 0.54, 0.4467773, 0.54, -0.7275391, 0.54, 0.5541992, 0.54, 3.8414636, 0.54, -0.3048781, 0.54, 7.2560978
0.093569, -0.0072175, 0.5427, 0.4462891, 0.5427, -0.7197266, 0.5427, 0.5541992, 0.5427, 3.7195122, 0.5427, -0.4878049, 0.5427, 7.0731707
0.0940345, -0.0075532, 0.5454, 0.4516602, 0.5454, -0.715332, 0.5454, 0.5571289, 0.5454, 3.9024391, 0.5454, -0.3658537, 0.5454, 6.6463418
0.0945, -0.0048676, 0.5481, 0.4506836, 0.5481, -0.7124023, 0.5481, 0.5600586, 0.5481, 4.1463413, 0.5481, 0.0609756, 0.5481, 6.3414636
0.0949655, -0.0008392, 0.5508, 0.4482422, 0.5508, -0.7089844, 0.5508, 0.5644531, 0.5508, 4.0853658, 0.5508, 0.1829268, 0.5508, 6.1585369
0.095431, 0.0005035, 0.5535, 0.4482422, 0.5535, -0.706543, 0.5535, 0.5644531, 0.5535, 4.0853658, 0.5535, 0.4268293, 0.5535, 6.5853658
0.0958966, -0.0001678, 0.5562, 0.4448242, 0.5562, -0.7045898, 0.5562, 0.5629883, 0.5562, 4.2682929, 0.5562, 1.2804878, 0.5562, 6.4024391
0.0963621, 0.0001678, 0.5589, 0.4433594, 0.5589, -0.7075195, 0.5589, 0.5610352, 0.5589, 4.6951222, 0.5589, 1.4634147, 0.5589, 6.5243902
0.0968276, 0.0008392, 0.5616, 0.440918, 0.5616, -0.7016602, 0.5616, 0.5625, 0.5616, 4.7560978, 0.5616, 2.5609756, 0.5616, 6.280488
0.0972931, 0.0010071, 0.5643, 0.4326172, 0.5643, -0.6933594, 0.5643, 0.5585938, 0.5643, 4.6341462, 0.5643, 2.9268293, 0.5643, 6.280488
0.0977586, -0.0010071, 0.567, 0.4306641, 0.567, -0.690918, 0.567, 0.5532227, 0.567, 4.4512196, 0.567, 3.5975611, 0.567, 6.5853658
0.0982241, -0.0015106, 0.5697, 0.4228516, 0.5697, -0.684082, 0.5697, 0.550293, 0.5697, 4.8170733, 0.5697, 3.7195122, 0.5697, 6.7073174
0.0986897, -0.0003357, 0.5724, 0.4189453, 0.5724, -0.6821289, 0.5724, 0.5473633, 0.5724, 4.6341462, 0.5724, 3.5975611, 0.5724, 7.1341467
0.0991552, -0.0015106, 0.5751, 0.4121094, 0.5751, -0.6821289, 0.5751, 0.5444336, 0.5751, 4.5731707, 0.5751, 3.2317073, 0.5751, 7.4390244
0.0996207, -0.0043641, 0.5778, 0.4052734, 0.5778, -0.6772461, 0.5778, 0.5405273, 0.5778, 4.390244, 0.5778, 2.1341465, 0.5778, 7.8658538
0.1000862, -0.0073854, 0.5805, 0.40625, 0.5805, -0.6791992, 0.5805, 0.5336914, 0.5805, 4.5731707, 0.5805, 1.3414634, 0.5805, 8.2926826
0.1005517, -0.0070497, 0.5832, 0.4101562, 0.5832, -0.6738281, 0.5832, 0.5327148, 0.5832, 4.5731707, 0.5832, 0.7317073, 0.5832, 8.4146347
0.1010172, -0.0048676, 0.5859, 0.4057617, 0.5859, -0.6757812, 0.5859, 0.5385742, 0.5859, 4.4512196, 0.5859, -0.1219512, 0.5859, 8.2317076
0.1014828, -0.0048676, 0.5886, 0.4121094, 0.5886, -0.6762695, 0.5886, 0.5400391, 0.5886, 4.390244, 0.5886, -0.4268293, 0.5886, 8.1707315
0.1019483, -0.0050355, 0.5913, 0.4160156, 0.5913, -0.6777344, 0.5913, 0.5449219, 0.5913, 4.1463413, 0.5913, -1.402439, 0.5913, 7.6219516
0.1024138, -0.0045319, 0.594, 0.4179688, 0.594, -0.675293, 0.594, 0.5463867, 0.594, 4.6951222, 0.594, -1.6463414, 0.594, 7.1951222
0.1028793, -0.0045319, 0.5967, 0.4257812, 0.5967, -0.6782227, 0.5967, 0.5483398, 0.5967, 4.6341462, 0.5967, -2.0121951, 0.5967, 6.890244
0.1033448, -0.0052033, 0.5994, 0.4301758, 0.5994, -0.6821289, 0.5994, 0.5517578, 0.5994, 4.5731707, 0.5994, -1.9512196, 0.5994, 7.0731707
0.1038103, -0.005539, 0.6021, 0.4326172, 0.6021, -0.6821289, 0.6021, 0.5512695, 0.6021, 4.8170733, 0.6021, -2.0731707, 0.6021, 6.4024391
0.1042759, -0.0062104, 0.6048, 0.4384766, 0.6048, -0.6845703, 0.6048, 0.5537109, 0.6048, 4.4512196, 0.6048, -1.7682927, 0.6048, 6.5243902
0.1047414, -0.0062104, 0.6075, 0.4428711, 0.6075, -0.6845703, 0.6075, 0.550293, 0.6075, 4.2073174, 0.6075, -1.1585366, 0.6075, 5.9756098
0.1052069, -0.0058747, 0.6102, 0.4492188, 0.6102, -0.6875, 0.6102, 0.5551758, 0.6102, 3.8414636, 0.6102, -0.7926829, 0.6102, 5.9756098
0.1056724, -0.0043641, 0.6129, 0.449707, 0.6129, -0.6835938, 0.6129, 0.5566406, 0.6129, 3.9024391, 0.6129, -0.4878049, 0.6129, 5.7926831
0.1061379, -0.0023499, 0.6156, 0.4541016, 0.6156, -0.6875, 0.6156, 0.5595703, 0.6156, 3.4756098, 0.6156, -0.2439024, 0.6156, 5.4268293
0.1066034, -0.0023499, 0.6183, 0.4555664, 0.6183, -0.6884766, 0.6183, 0.5581055, 0.6183, 3.1097562, 0.6183, -0.2439024, 0.6183, 5.2439027
0.107069, -0.0035248, 0.621, 0.4541016, 0.621, -0.6982422, 0.621, 0.5595703, 0.621, 2.8658538, 0.621, -0.0609756, 0.621, 5.4268293
0.1075345, -0.0031891, 0.6237, 0.456543, 0.6237, -0.6992188, 0.6237, 0.559082, 0.6237, 2.6829269, 0.6237, 0.1219512, 0.6237, 5.670732
0.108, -0.0018463, 0.6264, 0.4526367, 0.6264, -0.7036133, 0.6264, 0.5576172, 0.6264, 2.5, 0.6264, 0.7926829, 0.6264, 5.8536587
0.1084655, -0.003357, 0.6291, 0.4536133, 0.6291, -0.7045898, 0.6291, 0.5566406, 0.6291, 2.5, 0.6291, 0.9146342, 0.6291, 5.9756098
0.108931, -0.005539, 0.6318, 0.4467773, 0.6318, -0.706543, 0.6318, 0.5571289, 0.6318, 2.0731707, 0.6318, 0.9146342, 0.6318, 6.3414636
0.1093966, -0.0065461, 0.6345, 0.4462891, 0.6345, -0.7070312, 0.6345, 0.5537109, 0.6345, 2.3780489, 0.6345, 0.9146342, 0.6345, 6.4024391
0.1098621, -0.0038605, 0.6372, 0.4462891, 0.6372, -0.7114258, 0.6372, 0.5498047, 0.6372, 2.195122, 0.6372, 0.7926829, 0.6372, 6.2195125
0.1103276, -0.0025177, 0.6399, 0.4428711, 0.6399, -0.7138672, 0.6399, 0.5488281, 0.6399, 2.0731707, 0.6399, 0.4878049, 0.6399, 6.3414636
0.1107931, -0.0045319, 0.6426, 0.4492188, 0.6426, -0.71875, 0.6426, 0.5444336, 0.6426, 1.8292683, 0.6426, 0.4878049, 0.6426, 5.9146342
0.1112586, -0.0065461, 0.6453, 0.4536133, 0.6453, -0.7182617, 0.6453, 0.5507812, 0.6453, 1.7682927, 0.6453, 0.3658537, 0.6453, 5.7317076
0.1117241, -0.0078889, 0.648, 0.4570312, 0.648, -0.7216797, 0.648, 0.5483398, 0.648, 2.0121951, 0.648, 0.2439024, 0.648, 5.609756
0.1121897, -0.0080568, 0.6507, 0.4482422, 0.6507, -0.7280273, 0.6507, 0.5522461, 0.6507, 1.8902439, 0.6507, 0.1829268, 0.6507, 5.2439027
0.1126552, -0.0082246, 0.6534, 0.449707, 0.6534, -0.7333984, 0.6534, 0.5561523, 0.6534, 1.6463414, 0.6534, 0.1219512, 0.6534, 5
0.1131207, -0.0060426, 0.6561, 0.4375, 0.6561, -0.7387695, 0.6561, 0.5576172, 0.6561, 1.8292683, 0.6561, 0.1829268, 0.6561, 5.0609756
0.1135862, -0.003357, 0.6588, 0.4384766, 0.6588, -0.7407227, 0.6588, 0.5566406, 0.6588, 2.0731707, 0.6588, 0.1829268, 0.6588, 4.8170733
0.1140517, -0.0038605, 0.6615, 0.4311523, 0.6615, -0.7402344, 0.6615, 0.5595703, 0.6615, 1.9512196, 0.6615, -0.1219512, 0.6615, 4.5121951
0.1145172, -0.005539, 0.6642, 0.4287109, 0.6642, -0.7402344, 0.6642, 0.5615234, 0.6642, 1.8292683, 0.6642, -0.1829268, 0.6642, 4.6951222
0.1149828, -0.005539, 0.6669, 0.425293, 0.6669, -0.7412109, 0.6669, 0.5654297, 0.6669, 1.8292683, 0.6669, -0.4878049, 0.6669, 4.5731707
0.1154483, -0.0052033, 0.6696, 0.4228516, 0.6696, -0.7426758, 0.6696, 0.5678711, 0.6696, 1.7073171, 0.6696, -0.7317073, 0.6696, 4.2073174
0.1159138, -0.0058747, 0.6723, 0.4316406, 0.6723, -0.7397461, 0.6723, 0.5693359, 0.6723, 1.8292683, 0.6723, -1.1585366, 0.6723, 4.0853658
0.1163793, -0.0082246, 0.675, 0.4311523, 0.675, -0.7402344, 0.675, 0.5683594, 0.675, 1.7073171, 0.675, -1.2195122, 0.675, 3.7804878
0.1168448, -0.0112459, 0.6777, 0.4384766, 0.6777, -0.7456055, 0.6777, 0.5712891, 0.6777, 1.7682927, 0.6777, -1.3414634, 0.6777, 3.7195122
0.1173103, -0.0129244, 0.6804, 0.4414062, 0.6804, -0.7436523, 0.6804, 0.5766602, 0.6804, 1.3414634, 0.6804, -1.097561, 0.6804, 3.5975611
0.1177759, -0.0132601, 0.6831, 0.4345703, 0.6831, -0.7509766, 0.6831, 0.578125, 0.6831, 1.4634147, 0.6831, -0.5487805, 0.6831, 3.4146342
0.1182414, -0.0119173, 0.6858, 0.4375, 0.6858, -0.75, 0.6858, 0.5776367, 0.6858, 1.097561, 0.6858, -0.1829268, 0.6858, 3.2317073
0.1187069, -0.011078, 0.6885, 0.4414062, 0.6885, -0.7519531, 0.6885, 0.5761719, 0.6885, 1.1585366, 0.6885, 0.7926829, 0.6885, 3.2926829
0.1191724, -0.0124208, 0.6912, 0.4375, 0.6912, -0.7514648, 0.6912, 0.5722656, 0.6912, 1.0365853, 0.6912, 1.3414634, 0.6912, 3.5365853
0.1196379, -0.0129244, 0.6939, 0.4360352, 0.6939, -0.7490234, 0.6939, 0.5693359, 0.6939, 0.6707317, 0.6939, 2.1341465, 0.6939, 3.7804878
0.1201034, -0.0125887, 0.6966, 0.4248047, 0.6966, -0.7451172, 0.6966, 0.5737305, 0.6966, 0.6707317, 0.6966, 2.4390244, 0.6966, 4.0243902
0.120569, -0.0137636, 0.6993, 0.4248047, 0.6993, -0.7446289, 0.6993, 0.5717773, 0.6993, 0.4878049, 0.6993, 2.804878, 0.6993, 4.4512196
0.1210345, -0.0135958, 0.702, 0.4194336, 0.702, -0.7480469, 0.702, 0.5703125, 0.702, 0.4268293, 0.702, 2.5609756, 0.702, 4.5121951
0.1215, -0.0099031, 0.7047, 0.4174805, 0.7047, -0.7470703, 0.7047, 0.5683594, 0.7047, 0.4268293, 0.7047, 2.1341465, 0.7047, 5.1219511
0.1219655, -0.0070497, 0.7074, 0.4150391, 0.7074, -0.7436523, 0.7074, 0.5668945, 0.7074, 0.3658537, 0.7074, 2.195122, 0.7074, 4.9390244
0.122431, -0.0065461, 0.7101, 0.4135742, 0.7101, -0.7421875, 0.7101, 0.5693359, 0.7101, 0.4268293, 0.7101, 1.6463414, 0.7101, 5.3048782
0.1228966, -0.0075532, 0.7128, 0.4042969, 0.7128, -0.7426758, 0.7128, 0.5688477, 0.7128, 0.6707317, 0.7128, 1.4634147, 0.7128, 5.1829271
0.1233621, -0.0078889, 0.7155, 0.4067383, 0.7155, -0.7412109, 0.7155, 0.5722656, 0.7155, 1.1585366, 0.7155, 1.0365853, 0.7155, 5.3658538
0.1238276, -0.0075532, 0.7182, 0.4013672, 0.7182, -0.7436523, 0.7182, 0.574707, 0.7182, 1.2195122, 0.7182, 0.6707317, 0.7182, 5.3048782
0.1242931, -0.0082246, 0.7209, 0.4042969, 0.7209, -0.7412109, 0.7209, 0.5771484, 0.7209, 1.7682927, 0.7209, -0.1829268, 0.7209, 4.7560978
0.1247586, -0.0095674, 0.7236, 0.4082031, 0.7236, -0.7436523, 0.7236, 0.5761719, 0.7236, 1.7073171, 0.7236, -0.6707317, 0.7236, 4.390244
0.1252241, -0.0104067, 0.7263, 0.4116211, 0.7263, -0.7436523, 0.7263, 0.5786133, 0.7263, 1.7073171, 0.7263, -0.9756098, 0.7263, 4.1463413
0.1256897, -0.0102388, 0.729, 0.4155273, 0.729, -0.7485352, 0.729, 0.5800781, 0.729, 1.7682927, 0.729, -1.7682927, 0.729, 3.8414636
0.1261552, -0.0115816, 0.7317, 0.4194336, 0.7317, -0.7470703, 0.7317, 0.5795898, 0.7317, 1.8292683, 0.7317, -1.7682927, 0.7317, 3.9634147
0.1266207, -0.0149386, 0.7344, 0.4282227, 0.7344, -0.7436523, 0.7344, 0.578125, 0.7344, 1.4634147, 0.7344, -1.7682927, 0.7344, 3.7804878
0.1270862, -0.01561, 0.7371, 0.4262695, 0.7371, -0.7446289, 0.7371, 0.5766602, 0.7371, 1.5243902, 0.7371, -1.8902439, 0.7371, 3.8414636
0.1275517, -0.014435, 0.7398, 0.4267578, 0.7398, -0.7426758, 0.7398, 0.5810547, 0.7398, 1.5853659, 0.7398, -2.0731707, 0.7398, 4.3292685
0.1280172, -0.017792, 0.7425, 0.4257812, 0.7425, -0.7431641, 0.7425, 0.5820312, 0.7425, 1.402439, 0.7425, -1.7682927, 0.7425, 4.3292685
0.1284828, -0.0223239, 0.7452, 0.4277344, 0.7452, -0.7416992, 0.7452, 0.5810547, 0.7452, 1.097561, 0.7452, -1.9512196, 0.7452, 4.4512196
0.1289483, -0.024506, 0.7479, 0.4277344, 0.7479, -0.7436523, 0.7479, 0.5771484, 0.7479, 0.9146342, 0.7479, -2.1341465, 0.7479, 4.4512196
0.1294138, -0.0246738, 0.7506, 0.4301758, 0.7506, -0.7416992, 0.7506, 0.5825195, 0.7506, 0.8536586, 0.7506, -2.3170731, 0.7506, 4.2682929
0.1298793, -0.023331, 0.7533, 0.4316406, 0.7533, -0.7421875, 0.7533, 0.5820312, 0.7533, 0.7317073, 0.7533, -2.7439024, 0.7533, 4.2073174
0.1303448, -0.0226596, 0.756, 0.4375, 0.756, -0.7456055, 0.756, 0.578125, 0.756, 0.4878049, 0.756, -2.6829269, 0.756, 3.8414636
0.1308103, -0.0223239, 0.7587, 0.4384766, 0.7587, -0.7412109, 0.7587, 0.5805664, 0.7587, 0.4268293, 0.7587, -2.6219513, 0.7587, 3.5365853
0.1312759, -0.023331, 0.7614, 0.4379883, 0.7614, -0.7373047, 0.7614, 0.5800781, 0.7614, 0.6707317, 0.7614, -2.195122, 0.7614, 3.5365853
0.1317414, -0.0250095, 0.7641, 0.440918, 0.7641, -0.7407227, 0.7641, 0.5791016, 0.7641, 0.6707317, 0.7641, -1.8902439, 0.7641, 3.2926829
0.1322069, -0.0258488, 0.7668, 0.4384766, 0.7668, -0.7392578, 0.7668, 0.5786133, 0.7668, 1.0365853, 0.7668, -1.097561, 0.7668, 3.2926829
0.1326724, -0.0250095, 0.7695, 0.4365234, 0.7695, -0.7402344, 0.7695, 0.5810547, 0.7695, 0.7317073, 0.7695, -0.1219512, 0.7695, 3.2926829
0.1331379, -0.0238346, 0.7722, 0.4321289, 0.7722, -0.737793, 0.7722, 0.5810547, 0.7722, 0.9146342, 0.7722, 0.3658537, 0.7722, 3.2926829
0.1336034, -0.0229953, 0.7749, 0.425293, 0.7749, -0.7333984, 0.7749, 0.5786133, 0.7749, 1.0365853, 0.7749, 1.097561, 0.7749, 3.5365853
0.134069, -0.0208133, 0.7776, 0.4233398, 0.7776, -0.7333984, 0.7776, 0.5756836, 0.7776, 1.2804878, 0.7776, 1.402439, 0.7776, 3.5365853
0.1345345, -0.0186313, 0.7803, 0.4243164, 0.7803, -0.7329102, 0.7803, 0.5756836, 0.7803, 1.2195122, 0.7803, 1.7073171, 0.7803, 3.2926829
0.135, -0.0179599, 0.783, 0.4248047, 0.783, -0.7324219, 0.783, 0.574707, 0.783, 1.097561, 0.783, 1.7073171, 0.783, 3.2317073
0.1354655, -0.0159457, 0.7857, 0.4208984, 0.7857, -0.7255859, 0.7857, 0.5717773, 0.7857, 1.7073171, 0.7857, 1.6463414, 0.7857, 3.1707318
0.135931, -0.0132601, 0.7884, 0.4194336, 0.7884, -0.7280273, 0.7884, 0.5698242, 0.7884, 1.7073171, 0.7884, 1.5243902, 0.7884, 2.9268293
0.1363966, -0.0114137, 0.7911, 0.4140625, 0.7911, -0.730957, 0.7911, 0.5727539, 0.7911, 1.7682927, 0.7911, 1.5243902, 0.7911, 2.6829269
0.1368621, -0.0104067, 0.7938, 0.4101562, 0.7938, -0.7260742, 0.7938, 0.578125, 0.7938, 1.8292683, 0.7938, 1.9512196, 0.7938, 2.7439024
0.1373276, -0.0109102, 0.7965, 0.4086914, 0.7965, -0.7241211, 0.7965, 0.5737305, 0.7965, 1.8902439, 0.7965, 2.0121951, 0.7965, 2.5
0.1377931, -0.0095674, 0.7992, 0.4111328, 0.7992, -0.7250977, 0.7992, 0.574707, 0.7992, 1.9512196, 0.7992, 2.195122, 0.7992, 2.6829269
0.1382586, -0.0087282, 0.8019, 0.4086914, 0.8019, -0.7246094, 0.8019, 0.5727539, 0.8019, 2.4390244, 0.8019, 2.1341465, 0.8019, 2.3780489
0.1387241, -0.0099031, 0.8046, 0.4106445, 0.8046, -0.7202148, 0.8046, 0.5693359, 0.8046, 2.3170731, 0.8046, 2.1341465, 0.8046, 2.3170731
0.1391897, -0.0114137, 0.8073, 0.4121094, 0.8073, -0.7192383, 0.8073, 0.5703125, 0.8073, 2.2560976, 0.8073, 1.402439, 0.8073, 2.195122
0.1396552, -0.0109102, 0.81, 0.4135742, 0.81, -0.7236328, 0.81, 0.5664062, 0.81, 2.0121951, 0.81, 1.2804878, 0.81, 1.8902439
0.1401207, -0.0075532, 0.8127, 0.4189453, 0.8127, -0.7172852, 0.8127, 0.5683594, 0.8127, 2.0731707, 0.8127, 0.2439024, 0.8127, 1.8292683
0.1405862, -0.0053712, 0.8154, 0.421875, 0.8154, -0.7207031, 0.8154, 0.5678711, 0.8154, 2.0731707, 0.8154, -0.0609756, 0.8154, 1.9512196
0.1410517, -0.0041962, 0.8181, 0.4257812, 0.8181, -0.7236328, 0.8181, 0.5678711, 0.8181, 2.1341465, 0.8181, -0.4268293, 0.8181, 1.8292683
0.1415172, -0.0031891, 0.8208, 0.4267578, 0.8208, -0.7241211, 0.8208, 0.5708008, 0.8208, 1.8292683, 0.8208, -0.3658537, 0.8208, 2.2560976
0.1419828, -0.0031891, 0.8235, 0.4248047, 0.8235, -0.722168, 0.8235, 0.5673828, 0.8235, 1.8292683, 0.8235, -0.4878049, 0.8235, 2.3170731
0.1424483, -0.003357, 0.8262, 0.421875, 0.8262, -0.722168, 0.8262, 0.5654297, 0.8262, 1.4634147, 0.8262, -0.5487805, 0.8262, 2.1341465
0.1429138, -0.0028534, 0.8289, 0.4238281, 0.8289, -0.7241211, 0.8289, 0.5629883, 0.8289, 1.7073171, 0.8289, -0.4268293, 0.8289, 2.7439024
0.1433793, -0.0038605, 0.8316, 0.4262695, 0.8316, -0.7211914, 0.8316, 0.5654297, 0.8316, 1.0365853, 0.8316, -0.4268293, 0.8316, 2.3170731
0.1438448, -0.0048676, 0.8343, 0.4189453, 0.8343, -0.7197266, 0.8343, 0.5620117, 0.8343, 0.8536586, 0.8343, -0.4878049, 0.8343, 2.7439024
0.1443103, -0.0043641, 0.837, 0.4160156, 0.837, -0.71875, 0.837, 0.5649414, 0.837, 0.7926829, 0.837, -0.8536586, 0.837, 2.5
0.1447759, -0.0040284, 0.8397, 0.4130859, 0.8397, -0.7216797, 0.8397, 0.5634766, 0.8397, 0.7926829, 0.8397, -0.9146342, 0.8397, 2.5609756
0.1452414, -0.0043641, 0.8424, 0.4091797, 0.8424, -0.722168, 0.8424, 0.5639648, 0.8424, 0.4268293, 0.8424, -0.9146342, 0.8424, 2.6829269
0.1457069, -0.0048676, 0.8451, 0.4067383, 0.8451, -0.7275391, 0.8451, 0.5708008, 0.8451, 0.6707317, 0.8451, -0.9146342, 0.8451, 2.5609756
0.1461724, -0.0043641, 0.8478, 0.4077148, 0.8478, -0.7275391, 0.8478, 0.5717773, 0.8478, 0.6707317, 0.8478, -1.2195122, 0.8478, 2.4390244
0.1466379, -0.0046998, 0.8505, 0.4008789, 0.8505, -0.7231445, 0.8505, 0.5712891, 0.8505, 0.6707317, 0.8505, -1.2195122, 0.8505, 2.3780489
0.1471034, -0.0052033, 0.8532, 0.3989258, 0.8532, -0.7270508, 0.8532, 0.5727539, 0.8532, 0.6097561, 0.8532, -1.5853659, 0.8532, 2.0731707
0.147569, -0.0052033, 0.8559, 0.3999023, 0.8559, -0.7280273, 0.8559, 0.5737305, 0.8559, 0.4878049, 0.8559, -1.4634147, 0.8559, 2.195122
0.1480345, -0.0062104, 0.8586, 0.4018555, 0.8586, -0.7280273, 0.8586, 0.5766602, 0.8586, 0.8536586, 0.8586, -1.4634147, 0.8586, 2.2560976
0.1485, -0.0048676, 0.8613, 0.4086914, 0.8613, -0.7241211, 0.8613, 0.578125, 0.8613, 0.8536586, 0.8613, -1.5853659, 0.8613, 2.5
0.1489655, -0.0043641, 0.864, 0.4125977, 0.864, -0.7270508, 0.864, 0.5776367, 0.864, 0.4878049, 0.864, -1.2804878, 0.864, 2.4390244
0.149431, -0.0057069, 0.8667, 0.4194336, 0.8667, -0.7236328, 0.8667, 0.5825195, 0.8667, 0.6097561, 0.8667, -1.5243902, 0.8667, 2.5
0.1498966, -0.0072175, 0.8694, 0.4204102, 0.8694, -0.7250977, 0.8694, 0.5834961, 0.8694, 0.8536586, 0.8694, -1.6463414, 0.8694, 2.4390244
0.1503621, -0.0082246, 0.8721, 0.4194336, 0.8721, -0.7226562, 0.8721, 0.5820312, 0.8721, 0.1219512, 0.8721, -1.4634147, 0.8721, 2.7439024
0.1508276, -0.0083925, 0.8748, 0.4145508, 0.8748, -0.7255859, 0.8748, 0.5844727, 0.8748, 0.4268293, 0.8748, -1.5243902, 0.8748, 3.0487804
0.1512931, -0.008896, 0.8775, 0.4145508, 0.8775, -0.7319336, 0.8775, 0.5791016, 0.8775, 0, 0.8775, -1.2195122, 0.8775, 3.5975611
0.1517586, -0.0087282, 0.8802, 0.4111328, 0.8802, -0.7285156, 0.8802, 0.5786133, 0.8802, -0.2439024, 0.8802, -0.9756098, 0.8802, 3.7804878
0.1522241, -0.0082246, 0.8829, 0.4057617, 0.8829, -0.7270508, 0.8829, 0.5786133, 0.8829, -0.5487805, 0.8829, -0.4878049, 0.8829, 4.5731707
0.1526897, -0.0105745, 0.8856, 0.4047852, 0.8856, -0.7260742, 0.8856, 0.5776367, 0.8856, -0.4878049, 0.8856, -0.3658537, 0.8856, 4.5731707
0.1531552, -0.0129244, 0.8883, 0.4101562, 0.8883, -0.7280273, 0.8883, 0.5766602, 0.8883, -0.9146342, 0.8883, -0.4268293, 0.8883, 4.2682929
0.1536207, -0.0132601, 0.891, 0.4082031, 0.891, -0.7250977, 0.891, 0.5771484, 0.891, -1.097561, 0.891, -0.2439024, 0.891, 4.390244
0.1540862, -0.012253, 0.8937, 0.4116211, 0.8937, -0.7260742, 0.8937, 0.5766602, 0.8937, -0.6707317, 0.8937, 0, 0.8937, 4.1463413
0.1545517, -0.0117494, 0.8964, 0.4165039, 0.8964, -0.7285156, 0.8964, 0.5800781, 0.8964, -0.7317073, 0.8964, 0.0609756, 0.8964, 3.7195122
0.1550172, -0.0132601, 0.8991, 0.4199219, 0.8991, -0.7290039, 0.8991, 0.5844727, 0.8991, -0.1219512, 0.8991, 0.7926829, 0.8991, 3.3536587
0.1554828, -0.0171206, 0.9018, 0.418457, 0.9018, -0.7304688, 0.9018, 0.5825195, 0.9018, 0.1219512, 0.9018, 1.0365853, 0.9018, 3.2317073
0.1559483, -0.0193027, 0.9045, 0.4204102, 0.9045, -0.7324219, 0.9045, 0.5839844, 0.9045, 0.1219512, 0.9045, 1.7073171, 0.9045, 2.804878
0.1564138, -0.0198062, 0.9072, 0.4160156, 0.9072, -0.7324219, 0.9072, 0.5839844, 0.9072, 0.3048781, 0.9072, 2.5609756, 0.9072, 2.3170731
0.1568793, -0.0206455, 0.9099, 0.4130859, 0.9099, -0.7333984, 0.9099, 0.5825195, 0.9099, 0.1829268, 0.9099, 2.7439024, 0.9099, 2.3780489
0.1573448, -0.0216526, 0.9126, 0.4125977, 0.9126, -0.7324219, 0.9126, 0.5834961, 0.9126, 0.3658537, 0.9126, 3.4146342, 0.9126, 2.5609756
0.1578103, -0.0191348, 0.9153, 0.4160156, 0.9153, -0.7333984, 0.9153, 0.5830078, 0.9153, 0.4878049, 0.9153, 3.4146342, 0.9153, 2.3780489
0.1582759, -0.0152743, 0.918, 0.418457, 0.918, -0.7319336, 0.918, 0.5839844, 0.918, 0.6707317, 0.918, 3.7804878, 0.918, 2.1341465
0.1587414, -0.012253, 0.9207, 0.4174805, 0.9207, -0.7299805, 0.9207, 0.5883789, 0.9207, 0.4878049, 0.9207, 3.6585367, 0.9207, 2.0731707
0.1592069, -0.0068818, 0.9234, 0.418457, 0.9234, -0.7294922, 0.9234, 0.5830078, 0.9234, 0.7926829, 0.9234, 2.9268293, 0.9234, 1.8902439
0.1596724, -0.0041962, 0.9261, 0.4194336, 0.9261, -0.730957, 0.9261, 0.5854492, 0.9261, 0.5487805, 0.9261, 2.6219513, 0.9261, 2.2560976
0.1601379, -0.0085603, 0.9288, 0.4199219, 0.9288, -0.7299805, 0.9288, 0.5839844, 0.9288, 0.7317073, 0.9288, 2.1341465, 0.9288, 2.3780489
0.1606034, -0.0137636, 0.9315, 0.4165039, 0.9315, -0.7275391, 0.9315, 0.5844727, 0.9315, 0.4268293, 0.9315, 1.9512196, 0.9315, 2.2560976
0.161069, -0.0125887, 0.9342, 0.4169922, 0.9342, -0.7275391, 0.9342, 0.5854492, 0.9342, 0.3048781, 0.9342, 1.5243902, 0.9342, 2.6829269
0.1615345, -0.0078889, 0.9369, 0.4213867, 0.9369, -0.7246094, 0.9369, 0.5844727, 0.9369, 0.3658537, 0.9369, 1.3414634, 0.9369, 2.7439024
0.162, -0.0058747, 0.9396, 0.4257812, 0.9396, -0.7236328, 0.9396, 0.5830078, 0.9396, 0.4878049, 0.9396, 1.2804878, 0.9396, 2.5
0.1624655, -0.0052033, 0.9423, 0.4301758, 0.9423, -0.7270508, 0.9423, 0.5844727, 0.9423, 0.3048781, 0.9423, 0.9756098, 0.9423, 2.8658538
0.162931, -0.0031891, 0.945, 0.4272461, 0.945, -0.7216797, 0.945, 0.5839844, 0.945, 0.6707317, 0.945, 0.6707317, 0.945, 2.804878
0.1633966, -0.0102388, 0.9477, 0.4316406, 0.9477, -0.722168, 0.9477, 0.5849609, 0.9477, 0.7317073, 0.9477, 0.5487805, 0.9477, 2.8658538
0.1638621, -0.0297093, 0.9504, 0.4345703, 0.9504, -0.7211914, 0.9504, 0.5849609, 0.9504, 0.6097561, 0.9504, 0.6097561, 0.9504, 2.5609756
0.1643276, -0.0406195, 0.9531, 0.4335938, 0.9531, -0.7246094, 0.9531, 0.5883789, 0.9531, 0.9756098, 0.9531, 0.6097561, 0.9531, 2.1341465
0.1647931, -0.0317235, 0.9558, 0.4291992, 0.9558, -0.7236328, 0.9558, 0.5830078, 0.9558, 0.7926829, 0.9558, 0.7317073, 0.9558, 2.195122
0.1652586, -0.0119173, 0.9585, 0.4267578, 0.9585, -0.7260742, 0.9585, 0.5844727, 0.9585, 0.7317073, 0.9585, 0.9756098, 0.9585, 2.1341465
0.1657241, 0.0028534, 0.9612, 0.4301758, 0.9612, -0.7246094, 0.9612, 0.5810547, 0.9612, 0.9756098, 0.9612, 1.1585366, 0.9612, 2.3170731
0.1661897, 0.0129244, 0.9639, 0.4296875, 0.9639, -0.7241211, 0.9639, 0.5834961, 0.9639, 1.2195122, 0.9639, 1.4634147, 0.9639, 1.9512196
0.1666552, 0.0216526, 0.9666, 0.4335938, 0.9666, -0.7260742, 0.9666, 0.5825195, 0.9666, 1.3414634, 0.9666, 1.5243902, 0.9666, 1.7073171
0.1671207, 0.0250095, 0.9693, 0.4296875, 0.9693, -0.7255859, 0.9693, 0.5839844, 0.9693, 1.402439, 0.9693, 1.6463414, 0.9693, 1.5853659
0.1675862, 0.0204776, 0.972, 0.4243164, 0.972, -0.7255859, 0.972, 0.5830078, 0.972, 1.2195122, 0.972, 1.7073171, 0.972, 2.0121951
0.1680517, 0.0130922, 0.9747, 0.4243164, 0.9747, -0.7299805, 0.9747, 0.5839844, 0.9747, 1.6463414, 0.9747, 1.097561, 0.9747, 1.8292683
0.1685172, 0.0082246, 0.9774, 0.4208984, 0.9774, -0.7285156, 0.9774, 0.5854492, 0.9774, 1.8292683, 0.9774, 1.097561, 0.9774, 1.9512196
0.1689828, 0.0063783, 0.9801, 0.4189453, 0.9801, -0.7241211, 0.9801, 0.5844727, 0.9801, 1.7073171, 0.9801, 1.097561, 0.9801, 2.0731707
0.1694483, 0.005539, 0.9828, 0.4179688, 0.9828, -0.7324219, 0.9828, 0.5830078, 0.9828, 1.5243902, 0.9828, 0.8536586, 0.9828, 1.8292683
0.1699138, 0.005539, 0.9855, 0.418457, 0.9855, -0.7294922, 0.9855, 0.5810547, 0.9855, 2.0121951, 0.9855, 0.3048781, 0.9855, 1.8292683
0.1703793, 0.0045319, 0.9882, 0.4145508, 0.9882, -0.7285156, 0.9882, 0.5810547, 0.9882, 1.6463414, 0.9882, 0.2439024, 0.9882, 1.8902439
0.1708448, -0.0011749, 0.9909, 0.4194336, 0.9909, -0.7275391, 0.9909, 0.5771484, 0.9909, 1.7682927, 0.9909, 0, 0.9909, 1.7073171
0.1713103, -0.0154421, 0.9936, 0.4267578, 0.9936, -0.7250977, 0.9936, 0.5761719, 0.9936, 1.7682927, 0.9936, 0, 0.9936, 1.7073171
0.1717759, -0.040116, 0.9963, 0.4282227, 0.9963, -0.7202148, 0.9963, 0.574707, 0.9963, 1.5243902, 0.9963, 0, 0.9963, 1.5243902
0.1722414, -0.0622721, 0.999, 0.4365234, 0.999, -0.7260742, 0.999, 0.5771484, 0.999, 1.9512196, 0.999, -0.2439024, 0.999, 1.402439
0.1727069, -0.0704967, 1.0017, 0.4350586, 1.0017, -0.7192383, 1.0017, 0.5771484, 1.0017, 1.6463414, 1.0017, -0.2439024, 1.0017, 1.1585366
0.1731724, -0.0639506, 1.0044, 0.434082, 1.0044, -0.7172852, 1.0044, 0.5771484, 1.0044, 1.097561, 1.0044, -1.097561, 1.0044, 0.7926829
0.1736379, -0.0505226, 1.0071, 0.4316406, 1.0071, -0.7202148, 1.0071, 0.5766602, 1.0071, 1.2804878, 1.0071, -1.7073171, 1.0071, 1.097561
0.1741034, -0.0335698, 1.0098, 0.4282227, 1.0098, -0.7236328, 1.0098, 0.5756836, 1.0098, 1.2804878, 1.0098, -1.8292683, 1.0098, 1.097561
0.174569, -0.0137636, 1.0125, 0.4248047, 1.0125, -0.7211914, 1.0125, 0.5771484, 1.0125, 0.7317073, 1.0125, -1.7682927, 1.0125, 1.2804878
0.1750345, 0.0070497, 1.0152, 0.4267578, 1.0152, -0.715332, 1.0152, 0.5766602, 1.0152, 0.8536586, 1.0152, -1.2195122, 1.0152, 1.5853659
0.1755, 0.0302129, 1.0179, 0.4306641, 1.0179, -0.7133789, 1.0179, 0.5756836, 1.0179, 0.9146342, 1.0179, -0.9756098, 1.0179, 1.5243902
0.1759655, 0.0488441, 1.0206, 0.4331055, 1.0206, -0.715332, 1.0206, 0.5791016, 1.0206, 0.7926829, 1.0206, -0.7926829, 1.0206, 0.8536586
0.176431, 0.0565652, 1.0233, 0.4414062, 1.0233, -0.7148438, 1.0233, 0.5805664, 1.0233, 0.6707317, 1.0233, -0.7317073, 1.0233, 0.8536586
0.1768966, 0.0522011, 1.026, 0.4428711, 1.026, -0.7138672, 1.026, 0.5795898, 1.026, 1.2195122, 1.026, -0.4268293, 1.026, 0.4268293
0.1773621, 0.0411231, 1.0287, 0.4467773, 1.0287, -0.715332, 1.0287, 0.5800781, 1.0287, 0.6707317, 1.0287, -0.2439024, 1.0287, 0.1219512
0.1778276, 0.0290379, 1.0314, 0.4453125, 1.0314, -0.715332, 1.0314, 0.5834961, 1.0314, 0.9756098, 1.0314, 0.6097561, 1.0314, 0.0609756
0.1782931, 0.0176242, 1.0341, 0.4423828, 1.0341, -0.7197266, 1.0341, 0.5849609, 1.0341, 1.0365853, 1.0341, 0.8536586, 1.0341, -0.0609756
0.1787586, 0.0068818, 1.0368, 0.4423828, 1.0368, -0.715332, 1.0368, 0.5825195, 1.0368, 0.9146342, 1.0368, 1.9512196, 1.0368, -0.0609756
0.1792241, -0.0023499, 1.0395, 0.440918, 1.0395, -0.7172852, 1.0395, 0.5820312, 1.0395, 0.8536586, 1.0395, 2.2560976, 1.0395, 0
0.1796897, -0.0095674, 1.0422, 0.4360352, 1.0422, -0.7128906, 1.0422, 0.5820312, 1.0422, 0.9756098, 1.0422, 2.804878, 1.0422, -0.2439024
0.1801552, -0.0152743, 1.0449, 0.4272461, 1.0449, -0.7075195, 1.0449, 0.5810547, 1.0449, 0.6097561, 1.0449, 2.8658538, 1.0449, 0.1219512
0.1806207, -0.0181277, 1.0476, 0.4223633, 1.0476, -0.7104492, 1.0476, 0.5825195, 1.0476, 0.7317073, 1.0476, 2.5609756, 1.0476, 0.1219512
0.1810862, -0.0199741, 1.0503, 0.421875, 1.0503, -0.7104492, 1.0503, 0.5776367, 1.0503, 0.7926829, 1.0503, 2.2560976, 1.0503, 0.6707317
0.1815517, -0.0214847, 1.053, 0.418457, 1.053, -0.7114258, 1.053, 0.5776367, 1.053, 0.4268293, 1.053, 2.1341465, 1.053, 0.6097561
0.1820172, -0.0223239, 1.0557, 0.4140625, 1.0557, -0.7119141, 1.0557, 0.5820312, 1.0557, 0.7317073, 1.0557, 1.402439, 1.0557, 0.7317073
0.1824828, -0.0218204, 1.0584, 0.4155273, 1.0584, -0.7143555, 1.0584, 0.5810547, 1.0584, 0.5487805, 1.0584, 0.9146342, 1.0584, 0.9756098
0.1829483, -0.0198062, 1.0611, 0.4150391, 1.0611, -0.7133789, 1.0611, 0.581543, 1.0611, 0.6097561, 1.0611, 0.4878049, 1.0611, 0.4878049
0.1834138, -0.0169528, 1.0638, 0.4116211, 1.0638, -0.7143555, 1.0638, 0.5830078, 1.0638, 0.2439024, 1.0638, 0.1219512, 1.0638, 0.8536586
0.1838793, -0.0140993, 1.0665, 0.4155273, 1.0665, -0.71875, 1.0665, 0.5810547, 1.0665, 0.3658537, 1.0665, -0.3048781, 1.0665, 0.7317073
0.1843448, -0.0149386, 1.0692, 0.4150391, 1.0692, -0.7182617, 1.0692, 0.5854492, 1.0692, 0.2439024, 1.0692, -0.8536586, 1.0692, 0.7317073
0.1848103, -0.0176242, 1.0719, 0.418457, 1.0719, -0.7202148, 1.0719, 0.5854492, 1.0719, 0.1829268, 1.0719, -1.2804878, 1.0719, 0.8536586
0.1852759, -0.0176242, 1.0746, 0.418457, 1.0746, -0.7182617, 1.0746, 0.5820312, 1.0746, -0.0609756, 1.0746, -1.5853659, 1.0746, 0.7317073
0.1857414, -0.0166171, 1.0773, 0.4189453, 1.0773, -0.7182617, 1.0773, 0.5878906, 1.0773, 0.1829268, 1.0773, -2.2560976, 1.0773, 0.5487805
0.1862069, -0.0159457, 1.08, 0.4213867, 1.08, -0.7207031, 1.08, 0.5932617, 1.08, 0.1219512, 1.08, -2.3780489, 1.08, 0.3658537
0.1866724, -0.0159457, 1.0827, 0.4243164, 1.0827, -0.7211914, 1.0827, 0.5932617, 1.0827, -0.0609756, 1.0827, -2.3780489, 1.0827, 0.6097561
0.1871379, -0.0151064, 1.0854, 0.4262695, 1.0854, -0.7275391, 1.0854, 0.5888672, 1.0854, 0, 1.0854, -1.8902439, 1.0854, 0.9146342
0.1876034, -0.0119173, 1.0881, 0.4306641, 1.0881, -0.7290039, 1.0881, 0.59375, 1.0881, -0.3658537, 1.0881, -1.402439, 1.0881, 1.097561
0.188069, -0.0075532, 1.0908, 0.4360352, 1.0908, -0.7285156, 1.0908, 0.5898438, 1.0908, -0.4268293, 1.0908, -0.4268293, 1.0908, 1.1585366
0.1885345, -0.0052033, 1.0935, 0.4379883, 1.0935, -0.7285156, 1.0935, 0.5917969, 1.0935, -0.1829268, 1.0935, -0.0609756, 1.0935, 1.5243902
0.189, -0.0057069, 1.0962, 0.4375, 1.0962, -0.7314453, 1.0962, 0.5942383, 1.0962, -0.3658537, 1.0962, 0.6097561, 1.0962, 1.097561
0.1894655, -0.0077211, 1.0989, 0.4433594, 1.0989, -0.7338867, 1.0989, 0.5932617, 1.0989, -0.5487805, 1.0989, 1.0365853, 1.0989, 0.6097561
0.189931, -0.0099031, 1.1016, 0.4453125, 1.1016, -0.7407227, 1.1016, 0.5942383, 1.1016, -0.3048781, 1.1016, 2.0731707, 1.1016, 0.6097561
0.1903966, -0.0097353, 1.1043, 0.4443359, 1.1043, -0.7368164, 1.1043, 0.5917969, 1.1043, -0.4268293, 1.1043, 2.5609756, 1.1043, 0.6097561
0.1908621, -0.0073854, 1.107, 0.4472656, 1.107, -0.7421875, 1.107, 0.5878906, 1.107, 0.0609756, 1.107, 3.4756098, 1.107, 0.1219512
0.1913276, -0.008896, 1.1097, 0.4433594, 1.1097, -0.7387695, 1.1097, 0.5859375, 1.1097, -0.1219512, 1.1097, 4.390244, 1.1097, 0.0609756
0.1917931, -0.012253, 1.1124, 0.440918, 1.1124, -0.734375, 1.1124, 0.5888672, 1.1124, 0.1829268, 1.1124, 6.1585369, 1.1124, 0.2439024
0.1922586, -0.0142672, 1.1151, 0.4379883, 1.1151, -0.7358398, 1.1151, 0.59375, 1.1151, 0.4878049, 1.1151, 7.1951222, 1.1151, 0.0609756
0.1927241, -0.0159457, 1.1178, 0.4360352, 1.1178, -0.7333984, 1.1178, 0.59375, 1.1178, 0.6707317, 1.1178, 8.3536587, 1.1178, -0.1829268
0.1931897, -0.0159457, 1.1205, 0.4277344, 1.1205, -0.7294922, 1.1205, 0.5942383, 1.1205, 0.7317073, 1.1205, 8.4756098, 1.1205, 0.0609756
0.1936552, -0.0139315, 1.1232, 0.4277344, 1.1232, -0.7255859, 1.1232, 0.5908203, 1.1232, 0.9756098, 1.1232, 9.5121956, 1.1232, -0.1829268
0.1941207, -0.0137636, 1.1259, 0.4316406, 1.1259, -0.7265625, 1.1259, 0.5869141, 1.1259, 0.9146342, 1.1259, 9.8780489, 1.1259, -0.1829268
0.1945862, -0.0139315, 1.1286, 0.4345703, 1.1286, -0.7260742, 1.1286, 0.5913086, 1.1286, 0.8536586, 1.1286, 10.8536587, 1.1286, -0.5487805
0.1950517, -0.0139315, 1.1313, 0.4345703, 1.1313, -0.7250977, 1.1313, 0.5957031, 1.1313, 1.1585366, 1.1313, 10.6097565, 1.1313, -0.9146342
0.1955172, -0.0135958, 1.134, 0.4345703, 1.134, -0.7270508, 1.134, 0.6020508, 1.134, 1.5853659, 1.134, 10.060976, 1.134, -1.0365853
0.1959828, -0.0139315, 1.1367, 0.4291992, 1.1367, -0.7226562, 1.1367, 0.5996094, 1.1367, 1.9512196, 1.1367, 10.1829271, 1.1367, -1.1585366
0.1964483, -0.0157778, 1.1394, 0.4272461, 1.1394, -0.7207031, 1.1394, 0.5986328, 1.1394, 1.7073171, 1.1394, 10.3048782, 1.1394, -1.097561
0.1969138, -0.0184634, 1.1421, 0.4179688, 1.1421, -0.7172852, 1.1421, 0.597168, 1.1421, 1.6463414, 1.1421, 10.6707315, 1.1421, -0.9146342
0.1973793, -0.0199741, 1.1448, 0.4111328, 1.1448, -0.71875, 1.1448, 0.5952148, 1.1448, 1.6463414, 1.1448, 10.6707315, 1.1448, -0.6097561
0.1978448, -0.0199741, 1.1475, 0.4072266, 1.1475, -0.7128906, 1.1475, 0.5957031, 1.1475, 1.4634147, 1.1475, 11.341464, 1.1475, -0.3048781
0.1983103, -0.0196384, 1.1502, 0.4013672, 1.1502, -0.7119141, 1.1502, 0.5927734, 1.1502, 1.7073171, 1.1502, 10.9756098, 1.1502, -0.2439024
0.1987759, -0.0203098, 1.1529, 0.3979492, 1.1529, -0.7109375, 1.1529, 0.5883789, 1.1529, 1.6463414, 1.1529, 9.8780489, 1.1529, -0.2439024
0.1992414, -0.0196384, 1.1556, 0.3945312, 1.1556, -0.7070312, 1.1556, 0.5883789, 1.1556, 1.5243902, 1.1556, 8.841464, 1.1556, -0.3658537
0.1997069, -0.0194705, 1.1583, 0.3920898, 1.1583, -0.7060547, 1.1583, 0.5849609, 1.1583, 1.402439, 1.1583, 7.4390244, 1.1583, -0.3658537
0.2001724, -0.0203098, 1.161, 0.3979492, 1.161, -0.7138672, 1.161, 0.581543, 1.161, 1.0365853, 1.161, 6.8292685, 1.161, -0.4268293
0.2006379, -0.0221561, 1.1637, 0.3994141, 1.1637, -0.7099609, 1.1637, 0.5825195, 1.1637, 0.8536586, 1.1637, 5.1219511, 1.1637, -0.3658537
0.2011034, -0.0218204, 1.1664, 0.4008789, 1.1664, -0.7070312, 1.1664, 0.5839844, 1.1664, 1.1585366, 1.1664, 4.0243902, 1.1664, -0.6707317
0.201569, -0.0231632, 1.1691, 0.4052734, 1.1691, -0.7094727, 1.1691, 0.5830078, 1.1691, 1.2804878, 1.1691, 2.2560976, 1.1691, -0.7926829
0.2020345, -0.0318914, 1.1718, 0.4101562, 1.1718, -0.7158203, 1.1718, 0.5864258, 1.1718, 1.4634147, 1.1718, 1.5853659, 1.1718, -0.5487805
0.2025, -0.040116, 1.1745, 0.4145508, 1.1745, -0.7177734, 1.1745, 0.5878906, 1.1745, 1.2804878, 1.1745, 0.4878049, 1.1745, -0.7926829
0.2029655, -0.0421302, 1.1772, 0.418457, 1.1772, -0.7167969, 1.1772, 0.5878906, 1.1772, 0.9756098, 1.1772, 0.2439024, 1.1772, -1.0365853
0.203431, -0.0411231, 1.1799, 0.4194336, 1.1799, -0.7163086, 1.1799, 0.5859375, 1.1799, 0.9756098, 1.1799, 0.2439024, 1.1799, -0.7317073
0.2038966, -0.0399481, 1.1826, 0.4189453, 1.1826, -0.715332, 1.1826, 0.5854492, 1.1826, 1.2804878, 1.1826, -0.0609756, 1.1826, -0.3048781
0.2043621, -0.0352483, 1.1853, 0.4213867, 1.1853, -0.7182617, 1.1853, 0.5874023, 1.1853, 1.4634147, 1.1853, -0.1829268, 1.1853, -0.3048781
0.2048276, -0.0256809, 1.188, 0.4179688, 1.188, -0.7192383, 1.188, 0.5913086, 1.188, 1.2195122, 1.188, 0.1219512, 1.188, -0.3048781
0.2052931, -0.012253, 1.1907, 0.4223633, 1.1907, -0.7207031, 1.1907, 0.5849609, 1.1907, 1.2804878, 1.1907, -0.1829268, 1.1907, -0.3658537
0.2057586, 0.0036927, 1.1934, 0.4213867, 1.1934, -0.7177734, 1.1934, 0.5839844, 1.1934, 1.097561, 1.1934, -0.4878049, 1.1934, 0.0609756
0.2062241, 0.0171206, 1.1961, 0.4213867, 1.1961, -0.7148438, 1.1961, 0.5839844, 1.1961, 1.1585366, 1.1961, -0.4268293, 1.1961, 0.0609756
0.2066897, 0.0255131, 1.1988, 0.4189453, 1.1988, -0.7216797, 1.1988, 0.5839844, 1.1988, 0.9756098, 1.1988, -1.0365853, 1.1988, 0.3658537
0.2071552, 0.0293736, 1.2015, 0.421875, 1.2015, -0.7167969, 1.2015, 0.5810547, 1.2015, 0.9146342, 1.2015, -0.9146342, 1.2015, 0.4878049
0.2076207, 0.0305486, 1.2042, 0.4189453, 1.2042, -0.7138672, 1.2042, 0.5795898, 1.2042, 0.6707317, 1.2042, -0.9146342, 1.2042, 0.1829268
0.2080862, 0.0287022, 1.2069, 0.4257812, 1.2069, -0.7089844, 1.2069, 0.5800781, 1.2069, 0.4878049, 1.2069, -0.4878049, 1.2069, 0.4268293
0.2085517, 0.0219883, 1.2096, 0.4267578, 1.2096, -0.7089844, 1.2096, 0.5825195, 1.2096, 0.6707317, 1.2096, 0.0609756, 1.2096, 0.0609756
0.2090172, 0.0092317, 1.2123, 0.4233398, 1.2123, -0.7182617, 1.2123, 0.5800781, 1.2123, 0.4268293, 1.2123, 0.7317073, 1.2123, 0.4268293
0.2094828, -0.005539, 1.215, 0.4243164, 1.215, -0.7143555, 1.215, 0.5800781, 1.215, 0.6707317, 1.215, 0.9756098, 1.215, 0.3048781
0.2099483, -0.0137636, 1.2177, 0.4199219, 1.2177, -0.7167969, 1.2177, 0.5834961, 1.2177, 0.7317073, 1.2177, 1.402439, 1.2177, 0.2439024
0.2104138, -0.0149386, 1.2204, 0.4169922, 1.2204, -0.715332, 1.2204, 0.5800781, 1.2204, 0.6097561, 1.2204, 1.8902439, 1.2204, 0.1219512
0.2108793, -0.0127565, 1.2231, 0.4169922, 1.2231, -0.7109375, 1.2231, 0.5771484, 1.2231, 0.3658537, 1.2231, 2.0731707, 1.2231, 0.2439024
0.2113448, -0.011078, 1.2258, 0.4140625, 1.2258, -0.7104492, 1.2258, 0.5776367, 1.2258, 0.1219512, 1.2258, 2.0731707, 1.2258, 0.1219512
0.2118103, -0.0065461, 1.2285, 0.4052734, 1.2285, -0.7075195, 1.2285, 0.5776367, 1.2285, -0.1829268, 1.2285, 1.8292683, 1.2285, 0.3048781
0.2122759, 0.0015106, 1.2312, 0.4038086, 1.2312, -0.7109375, 1.2312, 0.5742188, 1.2312, -0.3048781, 1.2312, 1.6463414, 1.2312, 0.6097561
0.2127414, 0.008896, 1.2339, 0.4013672, 1.2339, -0.7045898, 1.2339, 0.5786133, 1.2339, -0.5487805, 1.2339, 1.1585366, 1.2339, 0.9146342
0.2132069, 0.0152743, 1.2366, 0.4003906, 1.2366, -0.706543, 1.2366, 0.5771484, 1.2366, -0.3048781, 1.2366, 0.6097561, 1.2366, 1.097561
0.2136724, 0.0226596, 1.2393, 0.3989258, 1.2393, -0.7045898, 1.2393, 0.5732422, 1.2393, -0.5487805, 1.2393, -1.097561, 1.2393, 1.097561
0.2141379, 0.0219883, 1.242, 0.3999023, 1.242, -0.7070312, 1.242, 0.5756836, 1.242, -0.7317073, 1.242, -1.9512196, 1.242, 0.6097561
0.2146034, 0.0077211, 1.2447, 0.4082031, 1.2447, -0.7084961, 1.2447, 0.5703125, 1.2447, -0.9756098, 1.2447, -3.3536587, 1.2447, 0.4268293
0.215069, -0.0063783, 1.2474, 0.4194336, 1.2474, -0.7163086, 1.2474, 0.5732422, 1.2474, -0.8536586, 1.2474, -3.7804878, 1.2474, 0.0609756
0.2155345, -0.0082246, 1.2501, 0.425293, 1.2501, -0.7167969, 1.2501, 0.5766602, 1.2501, -1.0365853, 1.2501, -3.8414636, 1.2501, -0.1829268
0.216, 0.0001678, 1.2528, 0.4311523, 1.2528, -0.71875, 1.2528, 0.5800781, 1.2528, -0.9146342, 1.2528, -3.5975611, 1.2528, -0.4268293
0.2164655, 0.0095674, 1.2555, 0.434082, 1.2555, -0.7211914, 1.2555, 0.5800781, 1.2555, -0.5487805, 1.2555, -3.2317073, 1.2555, -0.7926829
0.216931, 0.0191348, 1.2582, 0.4296875, 1.2582, -0.7241211, 1.2582, 0.581543, 1.2582, -0.7926829, 1.2582, -2.804878, 1.2582, -0.5487805
0.2173966, 0.0305486, 1.2609, 0.4306641, 1.2609, -0.722168, 1.2609, 0.5791016, 1.2609, -0.3658537, 1.2609, -2.1341465, 1.2609, -0.6097561
0.2178621, 0.0394446, 1.2636, 0.4291992, 1.2636, -0.7182617, 1.2636, 0.5766602, 1.2636, -0.4268293, 1.2636, -2.0731707, 1.2636, -0.1829268
0.2183276, 0.0411231, 1.2663, 0.4238281, 1.2663, -0.715332, 1.2663, 0.5766602, 1.2663, -0.9756098, 1.2663, -1.7682927, 1.2663, -0.2439024
0.2187931, 0.0360876, 1.269, 0.4165039, 1.269, -0.715332, 1.269, 0.5756836, 1.269, -1.097561, 1.269, -1.8902439, 1.269, -0.1829268
0.2192586, 0.0263523, 1.2717, 0.4194336, 1.2717, -0.7148438, 1.2717, 0.5771484, 1.2717, -1.1585366, 1.2717, -2.2560976, 1.2717, -0.2439024
0.2197241, 0.0135958, 1.2744, 0.4194336, 1.2744, -0.7138672, 1.2744, 0.5761719, 1.2744, -1.097561, 1.2744, -2.3170731, 1.2744, -0.3048781
0.2201897, 0.0008392, 1.2771, 0.4233398, 1.2771, -0.7143555, 1.2771, 0.5805664, 1.2771, -0.9756098, 1.2771, -2.1341465, 1.2771, -0.4878049
0.2206552, -0.0099031, 1.2798, 0.4208984, 1.2798, -0.7172852, 1.2798, 0.5800781, 1.2798, -0.6097561, 1.2798, -1.5853659, 1.2798, -0.9756098
0.2211207, -0.0182956, 1.2825, 0.421875, 1.2825, -0.7158203, 1.2825, 0.5810547, 1.2825, -0.9756098, 1.2825, -0.9146342, 1.2825, -0.6707317
0.2215862, -0.0270237, 1.2852, 0.4194336, 1.2852, -0.7246094, 1.2852, 0.5810547, 1.2852, -0.7317073, 1.2852, -0.8536586, 1.2852, -0.7317073
0.2220517, -0.0339055, 1.2879, 0.4194336, 1.2879, -0.7260742, 1.2879, 0.5786133, 1.2879, -0.7317073, 1.2879, -0.6097561, 1.2879, -0.9756098
0.2225172, -0.0381018, 1.2906, 0.4155273, 1.2906, -0.7275391, 1.2906, 0.5786133, 1.2906, -0.7926829, 1.2906, 0.2439024, 1.2906, -0.3658537
0.2229828, -0.0414588, 1.2933, 0.4130859, 1.2933, -0.7265625, 1.2933, 0.5771484, 1.2933, -1.097561, 1.2933, 0.6707317, 1.2933, -0.0609756
0.2234483, -0.0439765, 1.296, 0.409668, 1.296, -0.7255859, 1.296, 0.5766602, 1.296, -0.7926829, 1.296, 0.4878049, 1.296, -0.0609756
0.2239138, -0.0454871, 1.2987, 0.4008789, 1.2987, -0.7246094, 1.2987, 0.5825195, 1.2987, -0.9146342, 1.2987, 0.2439024, 1.2987, 0.1829268
0.2243793, -0.0461585, 1.3014, 0.3979492, 1.3014, -0.7250977, 1.3014, 0.5825195, 1.3014, -0.9146342, 1.3014, -0.7926829, 1.3014, 0.7317073
0.2248448, -0.047837, 1.3041, 0.3994141, 1.3041, -0.7192383, 1.3041, 0.5800781, 1.3041, -0.7317073, 1.3041, -1.3414634, 1.3041, 0.9146342
0.2253103, -0.0485084, 1.3068, 0.3974609, 1.3068, -0.7226562, 1.3068, 0.5825195, 1.3068, -0.9146342, 1.3068, -2.3170731, 1.3068, 1.5243902
0.2257759, -0.0466621, 1.3095, 0.3964844, 1.3095, -0.7216797, 1.3095, 0.5820312, 1.3095, -0.6707317, 1.3095, -2.804878, 1.3095, 1.8902439
0.2262414, -0.0417945, 1.3122, 0.394043, 1.3122, -0.7163086, 1.3122, 0.5878906, 1.3122, -0.5487805, 1.3122, -4.4512196, 1.3122, 1.7073171
0.2267069, -0.0372625, 1.3149, 0.3994141, 1.3149, -0.7158203, 1.3149, 0.5898438, 1.3149, -0.4878049, 1.3149, -5.0609756, 1.3149, 1.8902439
0.2271724, -0.0352483, 1.3176, 0.3955078, 1.3176, -0.7177734, 1.3176, 0.5888672, 1.3176, -0.1829268, 1.3176, -6.280488, 1.3176, 2.1341465
0.2276379, -0.0340734, 1.3203, 0.3979492, 1.3203, -0.7163086, 1.3203, 0.5888672, 1.3203, 0, 1.3203, -6.8292685, 1.3203, 1.7073171
0.2281034, -0.0307164, 1.323, 0.4033203, 1.323, -0.7182617, 1.323, 0.5898438, 1.323, 0.2439024, 1.323, -6.5853658, 1.323, 1.7682927
0.228569, -0.0256809, 1.3257, 0.4052734, 1.3257, -0.7119141, 1.3257, 0.5883789, 1.3257, 0.7926829, 1.3257, -7.4390244, 1.3257, 1.402439
0.2290345, -0.0206455, 1.3284, 0.409668, 1.3284, -0.7109375, 1.3284, 0.5869141, 1.3284, 0.9756098, 1.3284, -7.5, 1.3284, 1.2804878
0.2295, -0.0186313, 1.3311, 0.4165039, 1.3311, -0.7138672, 1.3311, 0.5844727, 1.3311, 0.8536586, 1.3311, -7.8658538, 1.3311, 1.402439
0.2299655, -0.0181277, 1.3338, 0.4179688, 1.3338, -0.7167969, 1.3338, 0.5859375, 1.3338, 0.9756098, 1.3338, -8.0487804, 1.3338, 1.3414634
0.230431, -0.0171206, 1.3365, 0.4257812, 1.3365, -0.7124023, 1.3365, 0.5810547, 1.3365, 0.6707317, 1.3365, -8.1707315, 1.3365, 1.3414634
0.2308966, -0.0142672, 1.3392, 0.4321289, 1.3392, -0.7143555, 1.3392, 0.5830078, 1.3392, 0.5487805, 1.3392, -8.4146347, 1.3392, 1.1585366
0.2313621, -0.0102388, 1.3419, 0.4331055, 1.3419, -0.7119141, 1.3419, 0.5825195, 1.3419, 0.3658537, 1.3419, -7.7439027, 1.3419, 0.8536586
0.2318276, -0.008896, 1.3446, 0.4399414, 1.3446, -0.7143555, 1.3446, 0.5810547, 1.3446, 0.4878049, 1.3446, -7.6219516, 1.3446, 1.0365853
0.2322931, -0.0095674, 1.3473, 0.4467773, 1.3473, -0.7119141, 1.3473, 0.5766602, 1.3473, 0.2439024, 1.3473, -6.5853658, 1.3473, 1.2195122
0.2327586, -0.0099031, 1.35, 0.453125, 1.35, -0.7114258, 1.35, 0.5766602, 1.35, 0, 1.35, -6.1585369, 1.35, 1.2804878
0.2332241, -0.0092317, 1.3527, 0.4545898, 1.3527, -0.7128906, 1.3527, 0.5771484, 1.3527, -0.1219512, 1.3527, -4.5731707, 1.3527, 1.1585366
0.2336897, -0.0082246, 1.3554, 0.4560547, 1.3554, -0.7148438, 1.3554, 0.5766602, 1.3554, 0.3048781, 1.3554, -3.9634147, 1.3554, 0.7926829
0.2341552, -0.0062104, 1.3581, 0.4604492, 1.3581, -0.7143555, 1.3581, 0.5791016, 1.3581, 0.3048781, 1.3581, -2.3170731, 1.3581, 0.3048781
0.2346207, -0.0043641, 1.3608, 0.4648438, 1.3608, -0.7167969, 1.3608, 0.581543, 1.3608, 0.2439024, 1.3608, -1.3414634, 1.3608, 0.0609756
0.2350862, -0.0023499, 1.3635, 0.4628906, 1.3635, -0.7192383, 1.3635, 0.5820312, 1.3635, 0.1829268, 1.3635, 0.1829268, 1.3635, -0.0609756
0.2355517, -0.0001678, 1.3662, 0.4589844, 1.3662, -0.7158203, 1.3662, 0.5834961, 1.3662, -0.1829268, 1.3662, 1.097561, 1.3662, -0.1219512
0.2360172, 0.0023499, 1.3689, 0.4599609, 1.3689, -0.7124023, 1.3689, 0.5854492, 1.3689, -0.0609756, 1.3689, 2.7439024, 1.3689, -0.6097561
0.2364828, 0.0031891, 1.3716, 0.453125, 1.3716, -0.7104492, 1.3716, 0.5864258, 1.3716, 0, 1.3716, 4.0243902, 1.3716, -1.097561
0.2369483, 0.0023499, 1.3743, 0.4477539, 1.3743, -0.7114258, 1.3743, 0.5869141, 1.3743, 0.1219512, 1.3743, 4.1463413, 1.3743, -0.9146342
0.2374138, 0.0018463, 1.377, 0.4433594, 1.377, -0.7124023, 1.377, 0.5820312, 1.377, -0.6707317, 1.377, 4.0853658, 1.377, -0.9756098
0.2378793, 0.0016785, 1.3797, 0.4428711, 1.3797, -0.7119141, 1.3797, 0.5791016, 1.3797, -0.9146342, 1.3797, 3.8414636, 1.3797, -0.9146342
0.2383448, 0.0011749, 1.3824, 0.4423828, 1.3824, -0.7114258, 1.3824, 0.5800781, 1.3824, -1.5853659, 1.3824, 3.5975611, 1.3824, -1.097561
0.2388103, 0.0005035, 1.3851, 0.4443359, 1.3851, -0.7094727, 1.3851, 0.5820312, 1.3851, -1.4634147, 1.3851, 3.5975611, 1.3851, -1.097561
0.2392759, -0.0008392, 1.3878, 0.4404297, 1.3878, -0.7099609, 1.3878, 0.5786133, 1.3878, -1.8902439, 1.3878, 4.3292685, 1.3878, -1.0365853
0.2397414, -0.0028534, 1.3905, 0.4433594, 1.3905, -0.7119141, 1.3905, 0.5854492, 1.3905, -1.7073171, 1.3905, 4.8170733, 1.3905, -1.0365853
0.2402069, -0.0035248, 1.3932, 0.4360352, 1.3932, -0.7080078, 1.3932, 0.5883789, 1.3932, -1.5853659, 1.3932, 5, 1.3932, -0.9756098
0.2406724, -0.0041962, 1.3959, 0.4262695, 1.3959, -0.7089844, 1.3959, 0.5888672, 1.3959, -1.402439, 1.3959, 5, 1.3959, -0.7317073
0.2411379, -0.0038605, 1.3986, 0.4267578, 1.3986, -0.7070312, 1.3986, 0.5908203, 1.3986, -1.402439, 1.3986, 4.6341462, 1.3986, -0.9756098
0.2416034, -0.0036927, 1.4013, 0.409668, 1.4013, -0.7045898, 1.4013, 0.5952148, 1.4013, -1.5243902, 1.4013, 4.0243902, 1.4013, -1.2804878
0.242069, -0.0050355, 1.404, 0.4023438, 1.404, -0.7016602, 1.404, 0.590332, 1.404, -1.5853659, 1.404, 2.3170731, 1.404, -1.097561
0.2425345, -0.0065461, 1.4067, 0.3994141, 1.4067, -0.7006836, 1.4067, 0.5991211, 1.4067, -1.8902439, 1.4067, 1.8292683, 1.4067, -0.4878049
0.243, -0.0068818, 1.4094, 0.3969727, 1.4094, -0.6972656, 1.4094, 0.5996094, 1.4094, -2.2560976, 1.4094, 0.6097561, 1.4094, -0.1219512
0.2434655, -0.0077211, 1.4121, 0.3964844, 1.4121, -0.6967773, 1.4121, 0.6040039, 1.4121, -2.195122, 1.4121, 0.1219512, 1.4121, -0.1219512
0.243931, -0.0090639, 1.4148, 0.4018555, 1.4148, -0.6982422, 1.4148, 0.605957, 1.4148, -1.5243902, 1.4148, -0.4878049, 1.4148, 0.1219512
0.2443966, -0.0075532, 1.4175, 0.40625, 1.4175, -0.6923828, 1.4175, 0.609375, 1.4175, -1.2804878, 1.4175, -1.3414634, 1.4175, 0
0.2448621, -0.0058747, 1.4202, 0.4145508, 1.4202, -0.6933594, 1.4202, 0.6118164, 1.4202, -1.4634147, 1.4202, -1.3414634, 1.4202, -0.0609756
0.2453276, -0.0068818, 1.4229, 0.4238281, 1.4229, -0.7006836, 1.4229, 0.6162109, 1.4229, -0.7926829, 1.4229, -1.8902439, 1.4229, -0.4268293
0.2457931, -0.0082246, 1.4256, 0.4243164, 1.4256, -0.7045898, 1.4256, 0.6201172, 1.4256, -0.7926829, 1.4256, -2.1341465, 1.4256, -0.4268293
0.2462586, -0.0078889, 1.4283, 0.4355469, 1.4283, -0.7070312, 1.4283, 0.6108398, 1.4283, -0.9146342, 1.4283, -0.6097561, 1.4283, -0.6707317
0.2467241, -0.0072175, 1.431, 0.4389648, 1.431, -0.706543, 1.431, 0.6103516, 1.431, -0.9756098, 1.431, 0.4878049, 1.431, -0.6707317
0.2471897, -0.0068818, 1.4337, 0.4433594, 1.4337, -0.7084961, 1.4337, 0.6137695, 1.4337, -0.5487805, 1.4337, 1.8902439, 1.4337, -0.7926829
0.2476552, -0.0057069, 1.4364, 0.4384766, 1.4364, -0.7128906, 1.4364, 0.621582, 1.4364, -0.1829268, 1.4364, 1.9512196, 1.4364, -1.0365853
0.2481207, -0.0058747, 1.4391, 0.4360352, 1.4391, -0.7119141, 1.4391, 0.6196289, 1.4391, 0.1829268, 1.4391, 0.6707317, 1.4391, -0.2439024
0.2485862, -0.0062104, 1.4418, 0.4321289, 1.4418, -0.7094727, 1.4418, 0.6123047, 1.4418, 0, 1.4418, -0.3048781, 1.4418, 0.0609756
0.2490517, -0.005539, 1.4445, 0.434082, 1.4445, -0.7075195, 1.4445, 0.6079102, 1.4445, -0.2439024, 1.4445, -0.5487805, 1.4445, 0.3658537
0.2495172, -0.0043641, 1.4472, 0.4394531, 1.4472, -0.7094727, 1.4472, 0.6157227, 1.4472, -0.9756098, 1.4472, -0.2439024, 1.4472, 0.3658537
0.2499828, -0.0043641, 1.4499, 0.4394531, 1.4499, -0.7109375, 1.4499, 0.6210938, 1.4499, -0.8536586, 1.4499, 1.1585366, 1.4499, 0
0.2504483, -0.0052033, 1.4526, 0.4350586, 1.4526, -0.71875, 1.4526, 0.6206055, 1.4526, -0.6097561, 1.4526, 1.7073171, 1.4526, -0.1219512
0.2509138, -0.0058747, 1.4553, 0.4335938, 1.4553, -0.7182617, 1.4553, 0.6191406, 1.4553, 0, 1.4553, 3.3536587, 1.4553, 0.3048781
0.2513793, -0.0070497, 1.458, 0.4282227, 1.458, -0.7226562, 1.458, 0.6166992, 1.458, 0.3658537, 1.458, 4.3292685, 1.458, 0.3048781
0.2518448, -0.0109102, 1.4607, 0.4296875, 1.4607, -0.7250977, 1.4607, 0.6176758, 1.4607, 0.3658537, 1.4607, 6.0365853, 1.4607, 0.2439024
0.2523103, -0.0142672, 1.4634, 0.4238281, 1.4634, -0.7265625, 1.4634, 0.6245117, 1.4634, 0.7317073, 1.4634, 6.6463418, 1.4634, -0.1829268
0.2527759, -0.0137636, 1.4661, 0.4228516, 1.4661, -0.7265625, 1.4661, 0.6274414, 1.4661, 0.7926829, 1.4661, 6.5853658, 1.4661, -0.6097561
0.2532414, -0.0135958, 1.4688, 0.425293, 1.4688, -0.722168, 1.4688, 0.6269531, 1.4688, 1.2804878, 1.4688, 5.8536587, 1.4688, -0.3658537
0.2537069, -0.0146029, 1.4715, 0.4277344, 1.4715, -0.7226562, 1.4715, 0.628418, 1.4715, 1.3414634, 1.4715, 5.4268293, 1.4715, -0.7317073
0.2541724, -0.0142672, 1.4742, 0.4296875, 1.4742, -0.7167969, 1.4742, 0.6274414, 1.4742, 1.1585366, 1.4742, 4.8170733, 1.4742, -0.6097561
0.2546379, -0.0139315, 1.4769, 0.4321289, 1.4769, -0.7138672, 1.4769, 0.6259766, 1.4769, 0.8536586, 1.4769, 4.8170733, 1.4769, -0.1219512
0.2551034, -0.0146029, 1.4796, 0.4370117, 1.4796, -0.7094727, 1.4796, 0.6259766, 1.4796, 1.0365853, 1.4796, 6.1585369, 1.4796, -0.2439024
0.255569, -0.0157778, 1.4823, 0.4360352, 1.4823, -0.7104492, 1.4823, 0.6230469, 1.4823, 0.8536586, 1.4823, 6.8292685, 1.4823, -0.3658537
0.2560345, -0.0223239, 1.485, 0.434082, 1.485, -0.7089844, 1.485, 0.6220703, 1.485, 1.097561, 1.485, 8.2926826, 1.485, -0.3658537
0.2565, -0.0428016, 1.4877, 0.4213867, 1.4877, -0.7104492, 1.4877, 0.6166992, 1.4877, 1.1585366, 1.4877, 8.719512, 1.4877, -0.2439024
0.2569655, -0.0602579, 1.4904, 0.4160156, 1.4904, -0.7089844, 1.4904, 0.6166992, 1.4904, 1.2804878, 1.4904, 8.4146347, 1.4904, 0.0609756
0.257431, -0.0624399, 1.4931, 0.402832, 1.4931, -0.7070312, 1.4931, 0.6191406, 1.4931, 1.7682927, 1.4931, 7.9268293, 1.4931, -0.1829268
0.2578966, -0.0527047, 1.4958, 0.4047852, 1.4958, -0.7099609, 1.4958, 0.6147461, 1.4958, 1.8902439, 1.4958, 6.3414636, 1.4958, -0.1219512
0.2583621, -0.0357519, 1.4985, 0.3989258, 1.4985, -0.7119141, 1.4985, 0.6152344, 1.4985, 2.3170731, 1.4985, 5, 1.4985, -0.2439024
0.2588276, -0.0152743, 1.5012, 0.3989258, 1.5012, -0.7109375, 1.5012, 0.6181641, 1.5012, 3.2926829, 1.5012, 1.9512196, 1.5012, -0.0609756
0.2592931, 0.0063783, 1.5039, 0.3959961, 1.5039, -0.706543, 1.5039, 0.6186523, 1.5039, 3.4146342, 1.5039, 0.1829268, 1.5039, 0.0609756
0.2597586, 0.0287022, 1.5066, 0.3945312, 1.5066, -0.7094727, 1.5066, 0.621582, 1.5066, 4.390244, 1.5066, -2.9878049, 1.5066, 0.5487805
0.2602241, 0.0461585, 1.5093, 0.394043, 1.5093, -0.7084961, 1.5093, 0.625, 1.5093, 5.4878049, 1.5093, -5.670732, 1.5093, 0.6097561
0.2606897, 0.0506905, 1.512, 0.3935547, 1.512, -0.7075195, 1.512, 0.6264648, 1.512, 5.7317076, 1.512, -6.9512196, 1.512, 0.7317073
0.2611552, 0.0414588, 1.5147, 0.3974609, 1.5147, -0.7070312, 1.5147, 0.6274414, 1.5147, 6.3414636, 1.5147, -8.9024391, 1.5147, 0.8536586
0.2616207, 0.0293736, 1.5174, 0.3979492, 1.5174, -0.7045898, 1.5174, 0.6274414, 1.5174, 6.4024391, 1.5174, -9.5731707, 1.5174, 0.7926829
0.2620862, 0.0236667, 1.5201, 0.4013672, 1.5201, -0.699707, 1.5201, 0.6235352, 1.5201, 5.7926831, 1.5201, -10, 1.5201, 0.8536586
0.2625517, 0.0219883, 1.5228, 0.40625, 1.5228, -0.7006836, 1.5228, 0.6225586, 1.5228, 5.1829271, 1.5228, -9.5731707, 1.5228, 0.4878049
0.2630172, 0.0213169, 1.5255, 0.4101562, 1.5255, -0.706543, 1.5255, 0.6274414, 1.5255, 5, 1.5255, -8.4146347, 1.5255, -0.1219512
0.2634828, 0.0199741, 1.5282, 0.4140625, 1.5282, -0.7099609, 1.5282, 0.6342773, 1.5282, 4.9390244, 1.5282, -7.7439027, 1.5282, 0
0.2639483, 0.0166171, 1.5309, 0.4204102, 1.5309, -0.7114258, 1.5309, 0.6357422, 1.5309, 5.3048782, 1.5309, -6.1585369, 1.5309, -0.7926829
0.2644138, 0.0102388, 1.5336, 0.4194336, 1.5336, -0.7158203, 1.5336, 0.6357422, 1.5336, 5.4268293, 1.5336, -5.4878049, 1.5336, -1.2195122
0.2648793, 0.002182, 1.5363, 0.425293, 1.5363, -0.71875, 1.5363, 0.637207, 1.5363, 5.4878049, 1.5363, -4.1463413, 1.5363, -2.0121951
0.2653448, -0.0031891, 1.539, 0.4331055, 1.539, -0.722168, 1.539, 0.6376953, 1.539, 5.3048782, 1.539, -3.6585367, 1.539, -2.4390244
0.2658103, -0.0075532, 1.5417, 0.4350586, 1.5417, -0.7226562, 1.5417, 0.637207, 1.5417, 6.0975609, 1.5417, -3.1707318, 1.5417, -3.2926829
0.2662759, -0.0117494, 1.5444, 0.4350586, 1.5444, -0.7285156, 1.5444, 0.6328125, 1.5444, 5.9146342, 1.5444, -2.7439024, 1.5444, -3.2317073
0.2667414, -0.0139315, 1.5471, 0.4350586, 1.5471, -0.7285156, 1.5471, 0.6303711, 1.5471, 6.4634147, 1.5471, -1.7073171, 1.5471, -2.8658538
0.2672069, -0.0166171, 1.5498, 0.4331055, 1.5498, -0.7314453, 1.5498, 0.6328125, 1.5498, 6.4024391, 1.5498, -1.8292683, 1.5498, -2.7439024
0.2676724, -0.0191348, 1.5525, 0.4335938, 1.5525, -0.7280273, 1.5525, 0.6293945, 1.5525, 7.2560978, 1.5525, -1.4634147, 1.5525, -2.2560976
0.2681379, -0.0206455, 1.5552, 0.4360352, 1.5552, -0.7197266, 1.5552, 0.6254883, 1.5552, 7.1951222, 1.5552, -0.7926829, 1.5552, -1.6463414
0.2686034, -0.0223239, 1.5579, 0.4375, 1.5579, -0.715332, 1.5579, 0.6254883, 1.5579, 7.5, 1.5579, -0.4878049, 1.5579, -1.5853659
0.269069, -0.0246738, 1.5606, 0.4394531, 1.5606, -0.7148438, 1.5606, 0.6245117, 1.5606, 7.3170733, 1.5606, -0.3048781, 1.5606, -1.8292683
0.2695345, -0.0256809, 1.5633, 0.4389648, 1.5633, -0.7133789, 1.5633, 0.6240234, 1.5633, 7.6219516, 1.5633, -0.4268293, 1.5633, -1.7682927
0.27, -0.0256809, 1.566, 0.4360352, 1.566, -0.7109375, 1.566, 0.6230469, 1.566, 7.5609756, 1.566, -0.3048781, 1.566, -1.8292683
0.2704655, -0.023331, 1.5687, 0.4370117, 1.5687, -0.7099609, 1.5687, 0.6201172, 1.5687, 7.3170733, 1.5687, -0.0609756, 1.5687, -1.5243902
0.270931, -0.0218204, 1.5714, 0.4394531, 1.5714, -0.7036133, 1.5714, 0.6162109, 1.5714, 6.8292685, 1.5714, 1.097561, 1.5714, -1.5243902
0.2713966, -0.0209812, 1.5741, 0.4394531, 1.5741, -0.7045898, 1.5741, 0.6166992, 1.5741, 6.7073174, 1.5741, 1.7682927, 1.5741, -1.4634147
0.2718621, -0.0206455, 1.5768, 0.4438477, 1.5768, -0.7070312, 1.5768, 0.6152344, 1.5768, 6.5853658, 1.5768, 3.4146342, 1.5768, -1.6463414
0.2723276, -0.0198062, 1.5795, 0.4433594, 1.5795, -0.6992188, 1.5795, 0.6176758, 1.5795, 6.7073174, 1.5795, 4.1463413, 1.5795, -1.8292683
0.2727931, -0.018967, 1.5822, 0.4404297, 1.5822, -0.7070312, 1.5822, 0.6186523, 1.5822, 6.8292685, 1.5822, 5.1219511, 1.5822, -2.2560976
0.2732586, -0.0176242, 1.5849, 0.4399414, 1.5849, -0.706543, 1.5849, 0.6191406, 1.5849, 6.6463418, 1.5849, 5.7317076, 1.5849, -2.9268293
0.2737241, -0.0152743, 1.5876, 0.4399414, 1.5876, -0.7075195, 1.5876, 0.6201172, 1.5876, 7.0731707, 1.5876, 6.3414636, 1.5876, -3.1097562
0.2741897, -0.0139315, 1.5903, 0.456543, 1.5903, -0.7011719, 1.5903, 0.6137695, 1.5903, 7.0121951, 1.5903, 6.5853658, 1.5903, -3.4146342
0.2746552, -0.0157778, 1.593, 0.4624023, 1.593, -0.699707, 1.593, 0.6064453, 1.593, 7.2560978, 1.593, 8.4756098, 1.593, -3.5975611
0.2751207, -0.0179599, 1.5957, 0.4755859, 1.5957, -0.6914062, 1.5957, 0.6123047, 1.5957, 7.4390244, 1.5957, 9.9390249, 1.5957, -3.7195122
0.2755862, -0.0184634, 1.5984, 0.4741211, 1.5984, -0.6928711, 1.5984, 0.6098633, 1.5984, 7.9268293, 1.5984, 13.7195129, 1.5984, -3.7195122
0.2760517, -0.0182956, 1.6011, 0.4394531, 1.6011, -0.7016602, 1.6011, 0.609375, 1.6011, 8.2926826, 1.6011, 17.6829281, 1.6011, -2.6219513
0.2765172, -0.0154421, 1.6038, 0.4101562, 1.6038, -0.7070312, 1.6038, 0.6103516, 1.6038, 7.9878049, 1.6038, 19.2073174, 1.6038, -1.5853659
0.2769828, -0.0115816, 1.6065, 0.3540039, 1.6065, -0.7167969, 1.6065, 0.612793, 1.6065, 7.0121951, 1.6065, 19.0853672, 1.6065, -0.7317073
0.2774483, -0.0072175, 1.6092, 0.3330078, 1.6092, -0.715332, 1.6092, 0.6098633, 1.6092, 6.4634147, 1.6092, 17.3170738, 1.6092, -1.097561
0.2779138, -0.0023499, 1.6119, 0.3325195, 1.6119, -0.7021484, 1.6119, 0.6040039, 1.6119, 6.0365853, 1.6119, 11.5243902, 1.6119, -1.1585366
0.2783793, 0.0043641, 1.6146, 0.3540039, 1.6146, -0.6889648, 1.6146, 0.5976562, 1.6146, 6.2195125, 1.6146, 8.841464, 1.6146, -1.8292683
0.2788448, 0.0083925, 1.6173, 0.4077148, 1.6173, -0.6630859, 1.6173, 0.5986328, 1.6173, 6.7073174, 1.6173, 5.9146342, 1.6173, -3.2317073
0.2793103, 0.0073854, 1.62, 0.4321289, 1.62, -0.6611328, 1.62, 0.605957, 1.62, 6.8292685, 1.62, 5.670732, 1.62, -3.9024391
0.2797759, 0.0038605, 1.6227, 0.434082, 1.6227, -0.6650391, 1.6227, 0.612793, 1.6227, 6.7682929, 1.6227, 7.8048782, 1.6227, -4.5731707
0.2802414, 0.0003357, 1.6254, 0.4194336, 1.6254, -0.6796875, 1.6254, 0.6201172, 1.6254, 6.7682929, 1.6254, 9.3292685, 1.6254, -3.9634147
0.2807069, -0.0015106, 1.6281, 0.3974609, 1.6281, -0.690918, 1.6281, 0.6225586, 1.6281, 6.9512196, 1.6281, 12.3170738, 1.6281, -3.0487804
0.2811724, -0.0048676, 1.6308, 0.3691406, 1.6308, -0.7021484, 1.6308, 0.6171875, 1.6308, 7.1341467, 1.6308, 13.6585369, 1.6308, -2.2560976
0.2816379, -0.0109102, 1.6335, 0.3579102, 1.6335, -0.703125, 1.6335, 0.6074219, 1.6335, 7.0731707, 1.6335, 12.0121956, 1.6335, -0.9756098
0.2821034, -0.0172885, 1.6362, 0.331543, 1.6362, -0.6972656, 1.6362, 0.5966797, 1.6362, 6.5853658, 1.6362, 10.4268293, 1.6362, -0.6097561
0.282569, -0.0203098, 1.6389, 0.3378906, 1.6389, -0.6899414, 1.6389, 0.5991211, 1.6389, 6.0975609, 1.6389, 5.9146342, 1.6389, -0.4878049
0.2830345, -0.0209812, 1.6416, 0.347168, 1.6416, -0.6860352, 1.6416, 0.5922852, 1.6416, 5.8536587, 1.6416, 3.2926829, 1.6416, -0.6707317
0.2835, -0.0226596, 1.6443, 0.359375, 1.6443, -0.6787109, 1.6443, 0.5952148, 1.6443, 6.0365853, 1.6443, -0.5487805, 1.6443, -1.7073171
0.2839655, -0.0243381, 1.647, 0.3779297, 1.647, -0.6743164, 1.647, 0.6015625, 1.647, 6.4024391, 1.647, -1.2195122, 1.647, -1.7682927
0.284431, -0.0229953, 1.6497, 0.3793945, 1.6497, -0.6757812, 1.6497, 0.6064453, 1.6497, 6.6463418, 1.6497, -0.7317073, 1.6497, -1.8902439
0.2848966, -0.0219883, 1.6524, 0.3901367, 1.6524, -0.6860352, 1.6524, 0.6157227, 1.6524, 6.7073174, 1.6524, -0.2439024, 1.6524, -1.9512196
0.2853621, -0.0216526, 1.6551, 0.3969727, 1.6551, -0.6938477, 1.6551, 0.6166992, 1.6551, 6.7682929, 1.6551, 0.6707317, 1.6551, -2.0121951
0.2858276, -0.0218204, 1.6578, 0.3984375, 1.6578, -0.7016602, 1.6578, 0.6206055, 1.6578, 6.5243902, 1.6578, 1.9512196, 1.6578, -1.6463414
0.2862931, -0.0201419, 1.6605, 0.4013672, 1.6605, -0.7094727, 1.6605, 0.6166992, 1.6605, 6.4634147, 1.6605, 2.5609756, 1.6605, -1.5243902
0.2867586, -0.0169528, 1.6632, 0.3920898, 1.6632, -0.7167969, 1.6632, 0.6254883, 1.6632, 5.8536587, 1.6632, 3.5975611, 1.6632, -2.1341465
0.2872241, -0.0162814, 1.6659, 0.3828125, 1.6659, -0.7124023, 1.6659, 0.6323242, 1.6659, 5.8536587, 1.6659, 3.1707318, 1.6659, -2.5
0.2876897, -0.0231632, 1.6686, 0.3833008, 1.6686, -0.7114258, 1.6686, 0.6298828, 1.6686, 6.1585369, 1.6686, 2.6219513, 1.6686, -2.4390244
0.2881552, -0.0318914, 1.6713, 0.3852539, 1.6713, -0.7026367, 1.6713, 0.6298828, 1.6713, 6.2195125, 1.6713, 2.6829269, 1.6713, -2.0121951
0.2886207, -0.0344091, 1.674, 0.3867188, 1.674, -0.6967773, 1.674, 0.6279297, 1.674, 6.890244, 1.674, 2.9268293, 1.674, -1.2804878
0.2890862, -0.0307164, 1.6767, 0.3950195, 1.6767, -0.6918945, 1.6767, 0.6342773, 1.6767, 6.7073174, 1.6767, 2.9878049, 1.6767, -1.097561
0.2895517, -0.0256809, 1.6794, 0.4047852, 1.6794, -0.6879883, 1.6794, 0.6357422, 1.6794, 6.8292685, 1.6794, 2.9878049, 1.6794, -1.4634147
0.2900172, -0.0209812, 1.6821, 0.4238281, 1.6821, -0.6884766, 1.6821, 0.6401367, 1.6821, 6.890244, 1.6821, 2.9268293, 1.6821, -1.6463414
0.2904828, -0.0159457, 1.6848, 0.4414062, 1.6848, -0.6870117, 1.6848, 0.6420898, 1.6848, 7.3170733, 1.6848, 3.4146342, 1.6848, -2.2560976
0.2909483, -0.0099031, 1.6875, 0.4428711, 1.6875, -0.6967773, 1.6875, 0.6518555, 1.6875, 7.6219516, 1.6875, 4.8170733, 1.6875, -2.6829269
0.2914138, -0.0043641, 1.6902, 0.4306641, 1.6902, -0.7036133, 1.6902, 0.6640625, 1.6902, 7.6829271, 1.6902, 7.6219516, 1.6902, -2.0731707
0.2918793, -0.0052033, 1.6929, 0.4399414, 1.6929, -0.7041016, 1.6929, 0.6665039, 1.6929, 8.1097565, 1.6929, 9.6341467, 1.6929, -1.2804878
0.2923448, -0.0149386, 1.6956, 0.449707, 1.6956, -0.7036133, 1.6956, 0.6621094, 1.6956, 8.4756098, 1.6956, 10.2439022, 1.6956, -1.5243902
0.2928103, -0.0250095, 1.6983, 0.4541016, 1.6983, -0.7026367, 1.6983, 0.6577148, 1.6983, 8.780488, 1.6983, 12.9268293, 1.6983, -2.5
0.2932759, -0.0273594, 1.701, 0.4433594, 1.701, -0.7060547, 1.701, 0.6538086, 1.701, 8.5365858, 1.701, 14.2682934, 1.701, -2.3170731
0.2937414, -0.024506, 1.7037, 0.4399414, 1.7037, -0.7050781, 1.7037, 0.6513672, 1.7037, 9.4512196, 1.7037, 17.1341476, 1.7037, -1.097561
0.2942069, -0.0198062, 1.7064, 0.4487305, 1.7064, -0.703125, 1.7064, 0.6464844, 1.7064, 9.4512196, 1.7064, 18.2317085, 1.7064, -0.8536586
0.2946724, -0.014435, 1.7091, 0.4414062, 1.7091, -0.7016602, 1.7091, 0.6508789, 1.7091, 9.6341467, 1.7091, 19.5731716, 1.7091, -1.7073171
0.2951379, -0.0090639, 1.7118, 0.4257812, 1.7118, -0.6982422, 1.7118, 0.6459961, 1.7118, 9.6951218, 1.7118, 19.2682934, 1.7118, -2.2560976
0.2956034, -0.0072175, 1.7145, 0.4179688, 1.7145, -0.7021484, 1.7145, 0.6499023, 1.7145, 10.6707315, 1.7145, 19.1463413, 1.7145, -2.2560976
0.296069, -0.0154421, 1.7172, 0.4306641, 1.7172, -0.6982422, 1.7172, 0.6435547, 1.7172, 11.0365858, 1.7172, 19.2073174, 1.7172, -1.5853659
0.2965345, -0.0243381, 1.7199, 0.4384766, 1.7199, -0.6962891, 1.7199, 0.6367188, 1.7199, 11.5243902, 1.7199, 19.1463413, 1.7199, -1.4634147
0.297, -0.023331, 1.7226, 0.4277344, 1.7226, -0.6977539, 1.7226, 0.6347656, 1.7226, 11.5243902, 1.7226, 19.3902435, 1.7226, -1.8902439
0.2974655, -0.01561, 1.7253, 0.4189453, 1.7253, -0.7036133, 1.7253, 0.6357422, 1.7253, 11.7682934, 1.7253, 18.3536587, 1.7253, -2.4390244
0.297931, -0.0060426, 1.728, 0.3994141, 1.728, -0.7016602, 1.728, 0.6362305, 1.728, 12.0121956, 1.728, 17.439024, 1.728, -2.4390244
0.2983966, 0.0043641, 1.7307, 0.3925781, 1.7307, -0.6962891, 1.7307, 0.6357422, 1.7307, 12.5, 1.7307, 15.5487804, 1.7307, -1.5243902
0.2988621, 0.0157778, 1.7334, 0.3857422, 1.7334, -0.6835938, 1.7334, 0.625, 1.7334, 12.8048782, 1.7334, 14.9390249, 1.7334, -1.1585366
0.2993276, 0.0229953, 1.7361, 0.3852539, 1.7361, -0.6801758, 1.7361, 0.6274414, 1.7361, 12.6829271, 1.7361, 13.5365858, 1.7361, -0.4268293
0.2997931, 0.026688, 1.7388, 0.3930664, 1.7388, -0.6728516, 1.7388, 0.625, 1.7388, 12.2560978, 1.7388, 11.219512, 1.7388, -0.9756098
0.3002586, 0.0303807, 1.7415, 0.390625, 1.7415, -0.6708984, 1.7415, 0.6264648, 1.7415, 12.1341467, 1.7415, 9.7560978, 1.7415, -1.3414634
0.3007241, 0.0310521, 1.7442, 0.3798828, 1.7442, -0.6713867, 1.7442, 0.6293945, 1.7442, 11.8292685, 1.7442, 6.7682929, 1.7442, -1.7073171
0.3011897, 0.0271916, 1.7469, 0.375, 1.7469, -0.6782227, 1.7469, 0.6298828, 1.7469, 11.5853662, 1.7469, 5.1829271, 1.7469, -1.6463414
0.3016552, 0.0199741, 1.7496, 0.3813477, 1.7496, -0.6699219, 1.7496, 0.640625, 1.7496, 11.1585369, 1.7496, 2.1341465, 1.7496, -1.5243902
0.3021207, 0.012253, 1.7523, 0.3847656, 1.7523, -0.6689453, 1.7523, 0.6401367, 1.7523, 11.0975609, 1.7523, 0.9756098, 1.7523, -1.5243902
0.3025862, 0.0052033, 1.755, 0.4033203, 1.755, -0.6694336, 1.755, 0.6381836, 1.755, 10.9146347, 1.755, -0.7317073, 1.755, -1.402439
0.3030517, -0.002182, 1.7577, 0.4106445, 1.7577, -0.6689453, 1.7577, 0.640625, 1.7577, 11.0365858, 1.7577, -1.097561, 1.7577, -1.8902439
0.3035172, -0.0095674, 1.7604, 0.4150391, 1.7604, -0.6704102, 1.7604, 0.6425781, 1.7604, 11.219512, 1.7604, -1.0365853, 1.7604, -1.9512196
0.3039828, -0.0147707, 1.7631, 0.4257812, 1.7631, -0.6640625, 1.7631, 0.6347656, 1.7631, 11.4024391, 1.7631, -1.097561, 1.7631, -1.8902439
0.3044483, -0.0169528, 1.7658, 0.4296875, 1.7658, -0.6625977, 1.7658, 0.6259766, 1.7658, 11.341464, 1.7658, -0.3658537, 1.7658, -2.0731707
0.3049138, -0.0169528, 1.7685, 0.4370117, 1.7685, -0.6665039, 1.7685, 0.621582, 1.7685, 11.1585369, 1.7685, 0.3048781, 1.7685, -2.1341465
0.3053793, -0.0169528, 1.7712, 0.4418945, 1.7712, -0.6679688, 1.7712, 0.6230469, 1.7712, 10.9756098, 1.7712, 0.3658537, 1.7712, -2.195122
0.3058448, -0.0176242, 1.7739, 0.4345703, 1.7739, -0.6630859, 1.7739, 0.6230469, 1.7739, 10.9146347, 1.7739, 0.6097561, 1.7739, -1.8902439
0.3063103, -0.0181277, 1.7766, 0.4282227, 1.7766, -0.6669922, 1.7766, 0.6235352, 1.7766, 11.0975609, 1.7766, 0.4878049, 1.7766, -0.6097561
0.3067759, -0.0191348, 1.7793, 0.4345703, 1.7793, -0.6699219, 1.7793, 0.6152344, 1.7793, 10.8536587, 1.7793, 0.7317073, 1.7793, -0.4878049
0.3072414, -0.0206455, 1.782, 0.4277344, 1.782, -0.6694336, 1.782, 0.612793, 1.782, 10.2439022, 1.782, 1.5243902, 1.782, -0.2439024
0.3077069, -0.0203098, 1.7847, 0.4418945, 1.7847, -0.6640625, 1.7847, 0.6098633, 1.7847, 9.6951218, 1.7847, 2.2560976, 1.7847, -0.2439024
0.3081724, -0.0179599, 1.7874, 0.4453125, 1.7874, -0.6660156, 1.7874, 0.6064453, 1.7874, 9.6951218, 1.7874, 2.8658538, 1.7874, -0.3658537
0.3086379, -0.0159457, 1.7901, 0.4438477, 1.7901, -0.6645508, 1.7901, 0.5996094, 1.7901, 9.4512196, 1.7901, 4.5731707, 1.7901, -0.0609756
0.3091034, -0.01561, 1.7928, 0.4384766, 1.7928, -0.6679688, 1.7928, 0.5986328, 1.7928, 8.841464, 1.7928, 5.9146342, 1.7928, 0.2439024
0.309569, -0.0162814, 1.7955, 0.4316406, 1.7955, -0.675293, 1.7955, 0.5996094, 1.7955, 8.5365858, 1.7955, 7.6829271, 1.7955, 0.6707317
0.3100345, -0.0169528, 1.7982, 0.4248047, 1.7982, -0.6762695, 1.7982, 0.6020508, 1.7982, 8.4146347, 1.7982, 8.780488, 1.7982, 0.7317073
0.3105, -0.0162814, 1.8009, 0.4135742, 1.8009, -0.6733398, 1.8009, 0.6044922, 1.8009, 8.6585369, 1.8009, 9.0853662, 1.8009, 1.0365853
0.3109655, -0.014435, 1.8036, 0.4145508, 1.8036, -0.6699219, 1.8036, 0.5996094, 1.8036, 8.780488, 1.8036, 9.5121956, 1.8036, 1.0365853
0.311431, -0.0125887, 1.8063, 0.4125977, 1.8063, -0.6689453, 1.8063, 0.5966797, 1.8063, 7.6829271, 1.8063, 9.9390249, 1.8063, 0.8536586
0.3118966, -0.0109102, 1.809, 0.4125977, 1.809, -0.6713867, 1.809, 0.5917969, 1.809, 7.5, 1.809, 10.6707315, 1.809, 0.7926829
0.3123621, -0.0115816, 1.8117, 0.4033203, 1.8117, -0.6704102, 1.8117, 0.5957031, 1.8117, 7.3780489, 1.8117, 13.2926836, 1.8117, 1.2195122
0.3128276, -0.0115816, 1.8144, 0.3779297, 1.8144, -0.6826172, 1.8144, 0.6035156, 1.8144, 7.1951222, 1.8144, 14.6951227, 1.8144, 1.5853659
0.3132931, -0.0078889, 1.8171, 0.3666992, 1.8171, -0.684082, 1.8171, 0.6049805, 1.8171, 6.9512196, 1.8171, 16.1585369, 1.8171, 2.3780489
0.3137586, -0.0050355, 1.8198, 0.3569336, 1.8198, -0.6865234, 1.8198, 0.6054688, 1.8198, 6.890244, 1.8198, 16.0975609, 1.8198, 2.5609756
0.3142241, -0.0041962, 1.8225, 0.3510742, 1.8225, -0.6870117, 1.8225, 0.6025391, 1.8225, 6.280488, 1.8225, 14.4512196, 1.8225, 2.0121951
0.3146897, -0.0016785, 1.8252, 0.3432617, 1.8252, -0.6831055, 1.8252, 0.5981445, 1.8252, 6.0975609, 1.8252, 13.7195129, 1.8252, 1.1585366
0.3151552, 0.0008392, 1.8279, 0.3457031, 1.8279, -0.6821289, 1.8279, 0.6015625, 1.8279, 5.609756, 1.8279, 12.1951218, 1.8279, 0.5487805
0.3156207, 0.0025177, 1.8306, 0.3496094, 1.8306, -0.6796875, 1.8306, 0.6030273, 1.8306, 5.2439027, 1.8306, 10.7317076, 1.8306, 0
0.3160862, 0.0041962, 1.8333, 0.3515625, 1.8333, -0.6801758, 1.8333, 0.6074219, 1.8333, 5.3658538, 1.8333, 10.3048782, 1.8333, -0.2439024
0.3165517, 0.0041962, 1.836, 0.3476562, 1.836, -0.6835938, 1.836, 0.6132812, 1.836, 5.670732, 1.836, 10.5487804, 1.836, -0.3048781
0.3170172, 0.0023499, 1.8387, 0.3447266, 1.8387, -0.6855469, 1.8387, 0.621582, 1.8387, 5.4268293, 1.8387, 10.7926836, 1.8387, -0.4268293
0.3174828, 0.0005035, 1.8414, 0.328125, 1.8414, -0.6811523, 1.8414, 0.6230469, 1.8414, 5.609756, 1.8414, 10.5487804, 1.8414, -0.3658537
0.3179483, 0.0001678, 1.8441, 0.3310547, 1.8441, -0.6831055, 1.8441, 0.6235352, 1.8441, 6.0975609, 1.8441, 9.7560978, 1.8441, -0.3658537
0.3184138, -0.0028534, 1.8468, 0.340332, 1.8468, -0.6860352, 1.8468, 0.6303711, 1.8468, 6.280488, 1.8468, 7.5, 1.8468, -0.9146342
0.3188793, -0.0182956, 1.8495, 0.3427734, 1.8495, -0.6923828, 1.8495, 0.6420898, 1.8495, 5.9756098, 1.8495, 6.4024391, 1.8495, -0.9146342
0.3193448, -0.0471656, 1.8522, 0.34375, 1.8522, -0.6933594, 1.8522, 0.6469727, 1.8522, 6.4634147, 1.8522, 3.5975611, 1.8522, -1.097561
0.3198103, -0.0798962, 1.8549, 0.3530273, 1.8549, -0.7001953, 1.8549, 0.6552734, 1.8549, 6.890244, 1.8549, 2.4390244, 1.8549, -0.9146342
0.3202759, -0.1049058, 1.8576, 0.3574219, 1.8576, -0.7001953, 1.8576, 0.6591797, 1.8576, 7.3170733, 1.8576, 2.0731707, 1.8576, -0.4268293
0.3207414, -0.102388, 1.8603, 0.3554688, 1.8603, -0.699707, 1.8603, 0.668457, 1.8603, 7.3170733, 1.8603, 2.0731707, 1.8603, -0.0609756
0.3212069, -0.0762036, 1.863, 0.359375, 1.863, -0.6972656, 1.863, 0.671875, 1.863, 8.1097565, 1.863, 2.6829269, 1.863, 0.1219512
0.3216724, -0.0404517, 1.8657, 0.3662109, 1.8657, -0.6943359, 1.8657, 0.675293, 1.8657, 8.6585369, 1.8657, 2.5, 1.8657, 0.6097561
0.3221379, -0.0078889, 1.8684, 0.3671875, 1.8684, -0.6948242, 1.8684, 0.6762695, 1.8684, 9.2073174, 1.8684, 2.6219513, 1.8684, 0.5487805
0.3226034, 0.0199741, 1.8711, 0.3710938, 1.8711, -0.6933594, 1.8711, 0.6757812, 1.8711, 9.3292685, 1.8711, 2.2560976, 1.8711, 1.1585366
0.323069, 0.0448157, 1.8738, 0.3813477, 1.8738, -0.6914062, 1.8738, 0.6748047, 1.8738, 9.9390249, 1.8738, 2.6829269, 1.8738, 1.402439
0.3235345, 0.0663005, 1.8765, 0.3916016, 1.8765, -0.6879883, 1.8765, 0.6733398, 1.8765, 10.3658543, 1.8765, 3.9024391, 1.8765, 2.6829269
0.324, 0.0802319, 1.8792, 0.3945312, 1.8792, -0.6831055, 1.8792, 0.6713867, 1.8792, 10.1829271, 1.8792, 4.2073174, 1.8792, 2.5609756
0.3244655, 0.0827497, 1.8819, 0.387207, 1.8819, -0.6811523, 1.8819, 0.6708984, 1.8819, 10, 1.8819, 5.4268293, 1.8819, 2.4390244
0.324931, 0.0750286, 1.8846, 0.3813477, 1.8846, -0.6787109, 1.8846, 0.6762695, 1.8846, 10.2439022, 1.8846, 5.5487804, 1.8846, 2.5609756
0.3253966, 0.0627756, 1.8873, 0.3847656, 1.8873, -0.6738281, 1.8873, 0.6704102, 1.8873, 10.7317076, 1.8873, 5.9756098, 1.8873, 3.6585367
0.3258621, 0.049012, 1.89, 0.3886719, 1.89, -0.6743164, 1.89, 0.6674805, 1.89, 11.0365858, 1.89, 6.280488, 1.89, 3.5975611
0.3263276, 0.0330663, 1.8927, 0.3999023, 1.8927, -0.6762695, 1.8927, 0.6660156, 1.8927, 11.280488, 1.8927, 7.3780489, 1.8927, 3.9634147
0.3267931, 0.0028534, 1.8954, 0.4077148, 1.8954, -0.6777344, 1.8954, 0.6630859, 1.8954, 11.4634151, 1.8954, 8.6585369, 1.8954, 4.0853658
0.3272586, -0.035584, 1.8981, 0.4042969, 1.8981, -0.6791992, 1.8981, 0.6611328, 1.8981, 11.8902445, 1.8981, 10.4878054, 1.8981, 4.0853658
0.3277241, -0.0538796, 1.9008, 0.3955078, 1.9008, -0.6787109, 1.9008, 0.6635742, 1.9008, 11.9512196, 1.9008, 11.7682934, 1.9008, 4.0853658
0.3281897, -0.0431373, 1.9035, 0.390625, 1.9035, -0.6757812, 1.9035, 0.6630859, 1.9035, 12.9268293, 1.9035, 13.5975609, 1.9035, 5
0.3286552, -0.0206455, 1.9062, 0.3803711, 1.9062, -0.6679688, 1.9062, 0.6694336, 1.9062, 13.1097565, 1.9062, 14.5121956, 1.9062, 5.5487804
0.3291207, -0.0015106, 1.9089, 0.3720703, 1.9089, -0.6679688, 1.9089, 0.6708984, 1.9089, 14.3902445, 1.9089, 15.6097565, 1.9089, 7.1951222
0.3295862, 0.0120851, 1.9116, 0.359375, 1.9116, -0.6601562, 1.9116, 0.6708984, 1.9116, 14.9390249, 1.9116, 15.3658543, 1.9116, 7.5
0.3300517, 0.0203098, 1.9143, 0.3535156, 1.9143, -0.6567383, 1.9143, 0.6767578, 1.9143, 14.6341467, 1.9143, 14.3292685, 1.9143, 7.8048782
0.3305172, 0.0201419, 1.917, 0.3344727, 1.917, -0.6582031, 1.917, 0.6884766, 1.917, 13.841464, 1.917, 12.9268293, 1.917, 6.9512196
0.3309828, 0.0092317, 1.9197, 0.3286133, 1.9197, -0.6582031, 1.9197, 0.6914062, 1.9197, 13.2317076, 1.9197, 9.0853662, 1.9197, 5.1219511
0.3314483, -0.0052033, 1.9224, 0.3427734, 1.9224, -0.6567383, 1.9224, 0.6894531, 1.9224, 13.2317076, 1.9224, 7.0121951, 1.9224, 4.7560978
0.3319138, -0.0146029, 1.9251, 0.3535156, 1.9251, -0.6557617, 1.9251, 0.6889648, 1.9251, 13.3536587, 1.9251, 6.7682929, 1.9251, 4.3292685
0.3323793, -0.0196384, 1.9278, 0.3730469, 1.9278, -0.6572266, 1.9278, 0.6923828, 1.9278, 12.4390249, 1.9278, 6.280488, 1.9278, 2.6219513
0.3328448, -0.0203098, 1.9305, 0.3706055, 1.9305, -0.659668, 1.9305, 0.6923828, 1.9305, 11.7073174, 1.9305, 6.5853658, 1.9305, 1.9512196
0.3333103, -0.018967, 1.9332, 0.3720703, 1.9332, -0.6655273, 1.9332, 0.6958008, 1.9332, 11.7073174, 1.9332, 7.1951222, 1.9332, 1.5243902
0.3337759, -0.0159457, 1.9359, 0.3730469, 1.9359, -0.6665039, 1.9359, 0.6958008, 1.9359, 12.0731707, 1.9359, 7.5609756, 1.9359, 1.8292683
0.3342414, -0.012253, 1.9386, 0.3720703, 1.9386, -0.6674805, 1.9386, 0.6958008, 1.9386, 11.8292685, 1.9386, 7.6219516, 1.9386, 1.7073171
0.3347069, -0.0107424, 1.9413, 0.3862305, 1.9413, -0.6674805, 1.9413, 0.6933594, 1.9413, 11.5853662, 1.9413, 7.6829271, 1.9413, 1.402439
0.3351724, -0.012253, 1.944, 0.390625, 1.944, -0.6674805, 1.944, 0.6943359, 1.944, 12.3170738, 1.944, 7.3170733, 1.944, 1.5243902
0.3356379, -0.0135958, 1.9467, 0.3852539, 1.9467, -0.6650391, 1.9467, 0.6933594, 1.9467, 12.3780489, 1.9467, 7.5, 1.9467, 1.7682927
0.3361034, -0.0149386, 1.9494, 0.3837891, 1.9494, -0.6616211, 1.9494, 0.6899414, 1.9494, 12.9878054, 1.9494, 7.0121951, 1.9494, 2.195122
0.336569, -0.01561, 1.9521, 0.3891602, 1.9521, -0.6606445, 1.9521, 0.6801758, 1.9521, 12.8658543, 1.9521, 7.2560978, 1.9521, 1.9512196
0.3370345, -0.0146029, 1.9548, 0.3911133, 1.9548, -0.6630859, 1.9548, 0.6757812, 1.9548, 13.1097565, 1.9548, 7.9268293, 1.9548, 0.9146342
0.3375, -0.014435, 1.9575, 0.3930664, 1.9575, -0.6660156, 1.9575, 0.6728516, 1.9575, 12.9878054, 1.9575, 7.7439027, 1.9575, -0.1829268
0.3379655, -0.017792, 1.9602, 0.394043, 1.9602, -0.6650391, 1.9602, 0.671875, 1.9602, 13.2317076, 1.9602, 6.0975609, 1.9602, -1.2195122
0.338431, -0.0213169, 1.9629, 0.3984375, 1.9629, -0.6621094, 1.9629, 0.6655273, 1.9629, 13.4146347, 1.9629, 5.0609756, 1.9629, -1.3414634
0.3388966, -0.023331, 1.9656, 0.4057617, 1.9656, -0.6567383, 1.9656, 0.6625977, 1.9656, 12.8658543, 1.9656, 2.0121951, 1.9656, -0.7317073
0.3393621, -0.0216526, 1.9683, 0.4199219, 1.9683, -0.6542969, 1.9683, 0.6669922, 1.9683, 12.9878054, 1.9683, 0, 1.9683, 0.2439024
0.3398276, -0.0169528, 1.971, 0.4194336, 1.971, -0.6508789, 1.971, 0.6660156, 1.971, 12.6829271, 1.971, 0.1219512, 1.971, 0.6097561
0.3402931, -0.0135958, 1.9737, 0.4204102, 1.9737, -0.6533203, 1.9737, 0.6728516, 1.9737, 13.5365858, 1.9737, 0.9146342, 1.9737, 0.8536586
0.3407586, -0.0105745, 1.9764, 0.4174805, 1.9764, -0.6582031, 1.9764, 0.6708984, 1.9764, 13.780488, 1.9764, 1.5853659, 1.9764, 1.402439
0.3412241, -0.0075532, 1.9791, 0.4145508, 1.9791, -0.6601562, 1.9791, 0.671875, 1.9791, 13.7195129, 1.9791, 2.3170731, 1.9791, 1.7682927
0.3416897, -0.0058747, 1.9818, 0.4160156, 1.9818, -0.6577148, 1.9818, 0.6708984, 1.9818, 13.7195129, 1.9818, 2.3170731, 1.9818, 2.195122
0.3421552, -0.0073854, 1.9845, 0.4169922, 1.9845, -0.6557617, 1.9845, 0.668457, 1.9845, 13.6585369, 1.9845, 2.0731707, 1.9845, 1.8292683
0.3426207, -0.0117494, 1.9872, 0.4179688, 1.9872, -0.6542969, 1.9872, 0.6728516, 1.9872, 13.3536587, 1.9872, 2.0121951, 1.9872, 1.1585366
0.3430862, -0.0159457, 1.9899, 0.4199219, 1.9899, -0.6503906, 1.9899, 0.6767578, 1.9899, 12.8048782, 1.9899, 0.9146342, 1.9899, 0.6097561
0.3435517, -0.0164492, 1.9926, 0.4311523, 1.9926, -0.6479492, 1.9926, 0.6845703, 1.9926, 12.8048782, 1.9926, 0.3658537, 1.9926, 0.7317073
0.3440172, -0.0162814, 1.9953, 0.4345703, 1.9953, -0.6538086, 1.9953, 0.6855469, 1.9953, 12.8048782, 1.9953, 0.1829268, 1.9953, 0.1219512
0.3444828, -0.0171206, 1.998, 0.4418945, 1.998, -0.6586914, 1.998, 0.6894531, 1.998, 12.9268293, 1.998, 1.0365853, 1.998, 0.1219512
0.3449483, -0.0179599, 2.0007, 0.4423828, 2.0007, -0.6601562, 2.0007, 0.6977539, 2.0007, 13.5365858, 2.0007, 2.8658538, 2.0007, 0.0609756
0.3454138, -0.0176242, 2.0034, 0.4423828, 2.0034, -0.6645508, 2.0034, 0.6982422, 2.0034, 14.1463413, 2.0034, 3.9024391, 2.0034, 0.0609756
0.3458793, -0.0159457, 2.0061, 0.4404297, 2.0061, -0.6645508, 2.0061, 0.6962891, 2.0061, 14.6341467, 2.0061, 5.670732, 2.0061, 0.1219512
0.3463448, -0.014435, 2.0088, 0.4428711, 2.0088, -0.6665039, 2.0088, 0.6962891, 2.0088, 14.6341467, 2.0088, 6.4634147, 2.0088, 0.1219512
0.3468103, -0.0142672, 2.0115, 0.4438477, 2.0115, -0.668457, 2.0115, 0.6933594, 2.0115, 15.3048782, 2.0115, 7.5609756, 2.0115, 0.4878049
0.3472759, -0.0149386, 2.0142, 0.4458008, 2.0142, -0.668457, 2.0142, 0.6879883, 2.0142, 15.7317076, 2.0142, 8.2317076, 2.0142, 0.6097561
0.3477414, -0.0149386, 2.0169, 0.4443359, 2.0169, -0.6669922, 2.0169, 0.6845703, 2.0169, 16.0365849, 2.0169, 9.4512196, 2.0169, 0
0.3482069, -0.0151064, 2.0196, 0.4384766, 2.0196, -0.6621094, 2.0196, 0.6733398, 2.0196, 15.5487804, 2.0196, 10.6097565, 2.0196, 0.4878049
0.3486724, -0.0139315, 2.0223, 0.4306641, 2.0223, -0.6621094, 2.0223, 0.6665039, 2.0223, 15.9146347, 2.0223, 11.1585369, 2.0223, 0.9146342
0.3491379, -0.0135958, 2.025, 0.4228516, 2.025, -0.6586914, 2.025, 0.6582031, 2.025, 15.4268293, 2.025, 12.9878054, 2.025, 2.0121951
0.3496034, -0.0137636, 2.0277, 0.4213867, 2.0277, -0.6557617, 2.0277, 0.6494141, 2.0277, 15.1219511, 2.0277, 13.780488, 2.0277, 2.3170731
0.350069, -0.0124208, 2.0304, 0.4155273, 2.0304, -0.6567383, 2.0304, 0.6430664, 2.0304, 15.2439032, 2.0304, 16.4024391, 2.0304, 2.195122
0.3505345, -0.012253, 2.0331, 0.40625, 2.0331, -0.6508789, 2.0331, 0.6347656, 2.0331, 15.6097565, 2.0331, 16.7073174, 2.0331, 1.6463414
0.351, -0.0130922, 2.0358, 0.3950195, 2.0358, -0.6533203, 2.0358, 0.6391602, 2.0358, 15.5487804, 2.0358, 16.7682934, 2.0358, 1.7682927
0.3514655, -0.0129244, 2.0385, 0.3857422, 2.0385, -0.6464844, 2.0385, 0.6333008, 2.0385, 15.9146347, 2.0385, 15.7317076, 2.0385, 2.0121951
0.351931, -0.0137636, 2.0412, 0.3793945, 2.0412, -0.640625, 2.0412, 0.6298828, 2.0412, 16.5243912, 2.0412, 13.0487804, 2.0412, 2.6829269
0.3523966, -0.0166171, 2.0439, 0.3691406, 2.0439, -0.6401367, 2.0439, 0.6308594, 2.0439, 16.2195129, 2.0439, 10.9756098, 2.0439, 2.7439024
0.3528621, -0.0169528, 2.0466, 0.3652344, 2.0466, -0.6367188, 2.0466, 0.6323242, 2.0466, 15.7317076, 2.0466, 7.2560978, 2.0466, 2.6219513
0.3533276, -0.01561, 2.0493, 0.3696289, 2.0493, -0.6342773, 2.0493, 0.6425781, 2.0493, 15.1829271, 2.0493, 5.3658538, 2.0493, 2.7439024
0.3537931, -0.0139315, 2.052, 0.3637695, 2.052, -0.6337891, 2.052, 0.6450195, 2.052, 15.1219511, 2.052, 1.4634147, 2.052, 2.3780489
0.3542586, -0.0095674, 2.0547, 0.3725586, 2.0547, -0.6303711, 2.0547, 0.6523438, 2.0547, 14.5731707, 2.0547, 0, 2.0547, 2.5
0.3547241, -0.0052033, 2.0574, 0.378418, 2.0574, -0.6347656, 2.0574, 0.6577148, 2.0574, 14.5731707, 2.0574, -1.7682927, 2.0574, 2.3780489
0.3551897, -0.0048676, 2.0601, 0.3911133, 2.0601, -0.6396484, 2.0601, 0.6660156, 2.0601, 14.6341467, 2.0601, -2.3170731, 2.0601, 2.5609756
0.3556552, -0.0082246, 2.0628, 0.3950195, 2.0628, -0.6357422, 2.0628, 0.6665039, 2.0628, 15, 2.0628, -2.2560976, 2.0628, 2.4390244
0.3561207, -0.011078, 2.0655, 0.4013672, 2.0655, -0.6411133, 2.0655, 0.6635742, 2.0655, 15.1219511, 2.0655, -2.6829269, 2.0655, 2.5609756
0.3565862, -0.0112459, 2.0682, 0.3999023, 2.0682, -0.6411133, 2.0682, 0.6679688, 2.0682, 14.6341467, 2.0682, -2.8658538, 2.0682, 2.5
0.3570517, -0.0090639, 2.0709, 0.3955078, 2.0709, -0.6503906, 2.0709, 0.6713867, 2.0709, 14.2073174, 2.0709, -4.1463413, 2.0709, 2.6219513
0.3575172, -0.0092317, 2.0736, 0.3901367, 2.0736, -0.652832, 2.0736, 0.6743164, 2.0736, 14.4512196, 2.0736, -4.8780489, 2.0736, 2.3780489
0.3579828, -0.0114137, 2.0763, 0.3764648, 2.0763, -0.6450195, 2.0763, 0.6782227, 2.0763, 14.1463413, 2.0763, -5.8536587, 2.0763, 3.7804878
0.3584483, -0.0130922, 2.079, 0.3754883, 2.079, -0.6459961, 2.079, 0.6762695, 2.079, 13.5365858, 2.079, -6.4024391, 2.079, 4.2682929
0.3589138, -0.0142672, 2.0817, 0.3759766, 2.0817, -0.6435547, 2.0817, 0.6728516, 2.0817, 13.2317076, 2.0817, -6.890244, 2.0817, 3.9634147
0.3593793, -0.0142672, 2.0844, 0.3720703, 2.0844, -0.6396484, 2.0844, 0.6757812, 2.0844, 12.8658543, 2.0844, -6.8292685, 2.0844, 4.2073174
0.3598448, -0.0146029, 2.0871, 0.3706055, 2.0871, -0.6391602, 2.0871, 0.6791992, 2.0871, 12.6829271, 2.0871, -5.9146342, 2.0871, 5.1219511
0.3603103, -0.0151064, 2.0898, 0.3710938, 2.0898, -0.6308594, 2.0898, 0.6777344, 2.0898, 12.5, 2.0898, -5.4878049, 2.0898, 5.3658538
0.3607759, -0.0132601, 2.0925, 0.3720703, 2.0925, -0.6333008, 2.0925, 0.6748047, 2.0925, 12.3780489, 2.0925, -5.609756, 2.0925, 5
0.3612414, -0.0112459, 2.0952, 0.3647461, 2.0952, -0.6347656, 2.0952, 0.6748047, 2.0952, 11.9512196, 2.0952, -5.3658538, 2.0952, 5.3048782
0.3617069, -0.0109102, 2.0979, 0.3623047, 2.0979, -0.6318359, 2.0979, 0.6748047, 2.0979, 11.7682934, 2.0979, -5.9756098, 2.0979, 5.7926831
0.3621724, -0.0112459, 2.1006, 0.3637695, 2.1006, -0.6401367, 2.1006, 0.6777344, 2.1006, 11.9512196, 2.1006, -6.4634147, 2.1006, 5.9756098
0.3626379, -0.012253, 2.1033, 0.3579102, 2.1033, -0.6411133, 2.1033, 0.6845703, 2.1033, 12.4390249, 2.1033, -7.6829271, 2.1033, 6.280488
0.3631034, -0.0130922, 2.106, 0.3608398, 2.106, -0.6416016, 2.106, 0.6889648, 2.106, 12.1341467, 2.106, -7.9878049, 2.106, 6.3414636
0.363569, -0.0115816, 2.1087, 0.3613281, 2.1087, -0.6391602, 2.1087, 0.6928711, 2.1087, 12.1341467, 2.1087, -8.841464, 2.1087, 6.890244
0.3640345, -0.0078889, 2.1114, 0.3569336, 2.1114, -0.6391602, 2.1114, 0.703125, 2.1114, 12.3170738, 2.1114, -10.060976, 2.1114, 7.3170733
0.3645, -0.0046998, 2.1141, 0.3540039, 2.1141, -0.6376953, 2.1141, 0.7075195, 2.1141, 12.6829271, 2.1141, -10.7926836, 2.1141, 7.2560978
0.3649655, -0.003357, 2.1168, 0.3486328, 2.1168, -0.6367188, 2.1168, 0.7084961, 2.1168, 12.3780489, 2.1168, -12.0731707, 2.1168, 7.0121951
0.365431, -0.0045319, 2.1195, 0.3500977, 2.1195, -0.637207, 2.1195, 0.7158203, 2.1195, 12.3170738, 2.1195, -12.6829271, 2.1195, 7.2560978
0.3658966, -0.0075532, 2.1222, 0.3525391, 2.1222, -0.6342773, 2.1222, 0.7255859, 2.1222, 12.5, 2.1222, -13.4146347, 2.1222, 7.3170733
0.3663621, -0.0095674, 2.1249, 0.3535156, 2.1249, -0.6357422, 2.1249, 0.730957, 2.1249, 12.6829271, 2.1249, -13.6585369, 2.1249, 7.4390244
0.3668276, -0.011078, 2.1276, 0.3564453, 2.1276, -0.6362305, 2.1276, 0.7397461, 2.1276, 13.2926836, 2.1276, -13.2317076, 2.1276, 8.1707315
0.3672931, -0.0124208, 2.1303, 0.3618164, 2.1303, -0.6362305, 2.1303, 0.7436523, 2.1303, 12.8658543, 2.1303, -13.1707315, 2.1303, 7.9878049
0.3677586, -0.0125887, 2.133, 0.3652344, 2.133, -0.6367188, 2.133, 0.7421875, 2.133, 13.4146347, 2.133, -12.3780489, 2.133, 7.3170733
0.3682241, -0.0119173, 2.1357, 0.3608398, 2.1357, -0.6313477, 2.1357, 0.7431641, 2.1357, 12.6829271, 2.1357, -12.0731707, 2.1357, 6.5853658
0.3686897, -0.0095674, 2.1384, 0.3608398, 2.1384, -0.6352539, 2.1384, 0.7436523, 2.1384, 12.3780489, 2.1384, -11.7073174, 2.1384, 5.9146342
0.3691552, -0.0068818, 2.1411, 0.3618164, 2.1411, -0.6435547, 2.1411, 0.7475586, 2.1411, 12.1341467, 2.1411, -11.4024391, 2.1411, 5.670732
0.3696207, -0.0068818, 2.1438, 0.3642578, 2.1438, -0.6430664, 2.1438, 0.7485352, 2.1438, 12.3780489, 2.1438, -10.4268293, 2.1438, 5.1829271
0.3700862, -0.0082246, 2.1465, 0.3789062, 2.1465, -0.6445312, 2.1465, 0.7431641, 2.1465, 12.3780489, 2.1465, -9.5731707, 2.1465, 5.1219511
0.3705517, -0.0082246, 2.1492, 0.3837891, 2.1492, -0.6503906, 2.1492, 0.7456055, 2.1492, 12.4390249, 2.1492, -7.9878049, 2.1492, 4.3292685
0.3710172, -0.0082246, 2.1519, 0.3847656, 2.1519, -0.6499023, 2.1519, 0.7373047, 2.1519, 12.7439032, 2.1519, -7.0121951, 2.1519, 4.1463413
0.3714828, -0.0092317, 2.1546, 0.3862305, 2.1546, -0.6542969, 2.1546, 0.7358398, 2.1546, 12.3780489, 2.1546, -5.1829271, 2.1546, 3.4146342
0.3719483, -0.0092317, 2.1573, 0.3754883, 2.1573, -0.6567383, 2.1573, 0.7299805, 2.1573, 12.6829271, 2.1573, -3.4146342, 2.1573, 3.5365853
0.3724138, -0.0095674, 2.16, 0.3754883, 2.16, -0.6547852, 2.16, 0.7265625, 2.16, 12.4390249, 2.16, -2.3170731, 2.16, 3.4146342
0.3728793, -0.008896, 2.1627, 0.3759766, 2.1627, -0.6459961, 2.1627, 0.7202148, 2.1627, 12.3780489, 2.1627, -0.8536586, 2.1627, 2.9268293
0.3733448, -0.0085603, 2.1654, 0.3730469, 2.1654, -0.6450195, 2.1654, 0.7197266, 2.1654, 12.560976, 2.1654, 0, 2.1654, 2.5609756
0.3738103, -0.0065461, 2.1681, 0.3701172, 2.1681, -0.6391602, 2.1681, 0.7236328, 2.1681, 12.8658543, 2.1681, 1.1585366, 2.1681, 1.4634147
0.3742759, -0.0058747, 2.1708, 0.3691406, 2.1708, -0.6376953, 2.1708, 0.7255859, 2.1708, 13.2317076, 2.1708, 1.2804878, 2.1708, 1.3414634
0.3747414, -0.0058747, 2.1735, 0.3662109, 2.1735, -0.6362305, 2.1735, 0.7192383, 2.1735, 13.3536587, 2.1735, 0.6707317, 2.1735, 0.5487805
0.3752069, -0.0077211, 2.1762, 0.3666992, 2.1762, -0.6269531, 2.1762, 0.7226562, 2.1762, 13.0487804, 2.1762, 0.9146342, 2.1762, 0.6707317
0.3756724, -0.026688, 2.1789, 0.3652344, 2.1789, -0.625, 2.1789, 0.7294922, 2.1789, 13.2926836, 2.1789, 1.1585366, 2.1789, 0.2439024
0.3761379, -0.0686503, 2.1816, 0.3657227, 2.1816, -0.6264648, 2.1816, 0.7324219, 2.1816, 13.2926836, 2.1816, 0.9146342, 2.1816, 0.6097561
0.3766034, -0.0973526, 2.1843, 0.3647461, 2.1843, -0.6220703, 2.1843, 0.7299805, 2.1843, 13.780488, 2.1843, 2.1341465, 2.1843, 0.3658537
0.377069, -0.0894636, 2.187, 0.3774414, 2.187, -0.6162109, 2.187, 0.730957, 2.187, 13.2926836, 2.187, 2.1341465, 2.187, -0.0609756
0.3775345, -0.0587472, 2.1897, 0.3759766, 2.1897, -0.6157227, 2.1897, 0.7319336, 2.1897, 13.4146347, 2.1897, 2.3780489, 2.1897, -0.9146342
0.378, -0.0250095, 2.1924, 0.3779297, 2.1924, -0.6162109, 2.1924, 0.7236328, 2.1924, 13.5365858, 2.1924, 2.3170731, 2.1924, -0.7317073
0.3784655, 0.0031891, 2.1951, 0.3808594, 2.1951, -0.6162109, 2.1951, 0.7192383, 2.1951, 13.6585369, 2.1951, 1.9512196, 2.1951, -0.3048781
0.378931, 0.0219883, 2.1978, 0.3837891, 2.1978, -0.6171875, 2.1978, 0.7192383, 2.1978, 13.2317076, 2.1978, 2.5609756, 2.1978, -0.1219512
0.3793966, 0.0345769, 2.2005, 0.3828125, 2.2005, -0.6176758, 2.2005, 0.7197266, 2.2005, 13.4756098, 2.2005, 3.0487804, 2.2005, 0.1219512
0.3798621, 0.04448, 2.2032, 0.3774414, 2.2032, -0.6196289, 2.2032, 0.722168, 2.2032, 14.0243902, 2.2032, 3.7804878, 2.2032, 0.1219512
0.3803276, 0.0501869, 2.2059, 0.3735352, 2.2059, -0.6196289, 2.2059, 0.7182617, 2.2059, 14.1463413, 2.2059, 4.1463413, 2.2059, 0.0609756
0.3807931, 0.0498512, 2.2086, 0.3681641, 2.2086, -0.6230469, 2.2086, 0.7172852, 2.2086, 14.6341467, 2.2086, 4.6951222, 2.2086, 0.8536586
0.3812586, 0.0448157, 2.2113, 0.362793, 2.2113, -0.621582, 2.2113, 0.7143555, 2.2113, 14.3902445, 2.2113, 4.8780489, 2.2113, 0.9146342
0.3817241, 0.038941, 2.214, 0.3603516, 2.214, -0.6176758, 2.214, 0.7104492, 2.214, 14.6341467, 2.214, 4.7560978, 2.214, 1.7682927
0.3821897, 0.0328985, 2.2167, 0.3574219, 2.2167, -0.6171875, 2.2167, 0.7094727, 2.2167, 14.4512196, 2.2167, 4.390244, 2.2167, 1.8292683
0.3826552, 0.0276951, 2.2194, 0.359375, 2.2194, -0.6147461, 2.2194, 0.7041016, 2.2194, 14.5731707, 2.2194, 4.6951222, 2.2194, 2.0121951
0.3831207, 0.0246738, 2.2221, 0.3642578, 2.2221, -0.6108398, 2.2221, 0.699707, 2.2221, 14.5121956, 2.2221, 4.7560978, 2.2221, 2.2560976
0.3835862, 0.0186313, 2.2248, 0.3686523, 2.2248, -0.6108398, 2.2248, 0.6943359, 2.2248, 14.0243902, 2.2248, 5.0609756, 2.2248, 2.5609756
0.3840517, 0.0115816, 2.2275, 0.3671875, 2.2275, -0.6166992, 2.2275, 0.6972656, 2.2275, 14.3902445, 2.2275, 5.2439027, 2.2275, 2.9878049
0.3845172, 0.0048676, 2.2302, 0.3657227, 2.2302, -0.6191406, 2.2302, 0.6948242, 2.2302, 14.3292685, 2.2302, 5.609756, 2.2302, 3.1707318
0.3849828, -0.0028534, 2.2329, 0.3574219, 2.2329, -0.6181641, 2.2329, 0.6953125, 2.2329, 13.9634151, 2.2329, 5.7317076, 2.2329, 3.2317073
0.3854483, -0.010071, 2.2356, 0.3554688, 2.2356, -0.621582, 2.2356, 0.6933594, 2.2356, 14.6951227, 2.2356, 5.4878049, 2.2356, 3.7804878
0.3859138, -0.0152743, 2.2383, 0.3554688, 2.2383, -0.6166992, 2.2383, 0.6928711, 2.2383, 14.6341467, 2.2383, 5.4878049, 2.2383, 4.3292685
0.3863793, -0.027863, 2.241, 0.3535156, 2.241, -0.6181641, 2.241, 0.6962891, 2.241, 14.9390249, 2.241, 5.2439027, 2.241, 4.9390244
0.3868448, -0.0454871, 2.2437, 0.3535156, 2.2437, -0.6103516, 2.2437, 0.6958008, 2.2437, 14.8780489, 2.2437, 5.3658538, 2.2437, 5.3048782
0.3873103, -0.0543832, 2.2464, 0.3535156, 2.2464, -0.605957, 2.2464, 0.6958008, 2.2464, 14.9390249, 2.2464, 5.0609756, 2.2464, 5.9146342
0.3877759, -0.0500191, 2.2491, 0.3623047, 2.2491, -0.6005859, 2.2491, 0.6928711, 2.2491, 14.5731707, 2.2491, 5.1829271, 2.2491, 6.2195125
0.3882414, -0.0386053, 2.2518, 0.3662109, 2.2518, -0.6030273, 2.2518, 0.6918945, 2.2518, 14.5121956, 2.2518, 5.7926831, 2.2518, 6.5243902
0.3887069, -0.0243381, 2.2545, 0.3706055, 2.2545, -0.6054688, 2.2545, 0.6826172, 2.2545, 14.3902445, 2.2545, 7.5609756, 2.2545, 6.6463418
0.3891724, -0.0112459, 2.2572, 0.3686523, 2.2572, -0.609375, 2.2572, 0.684082, 2.2572, 14.1463413, 2.2572, 8.3536587, 2.2572, 6.3414636
0.3896379, 0.0011749, 2.2599, 0.3706055, 2.2599, -0.605957, 2.2599, 0.6835938, 2.2599, 14.3292685, 2.2599, 8.4146347, 2.2599, 5.609756
0.3901034, 0.0125887, 2.2626, 0.3681641, 2.2626, -0.6113281, 2.2626, 0.684082, 2.2626, 14.3292685, 2.2626, 8.1097565, 2.2626, 5.7926831
0.390569, 0.0206455, 2.2653, 0.355957, 2.2653, -0.6132812, 2.2653, 0.6855469, 2.2653, 13.5975609, 2.2653, 6.2195125, 2.2653, 5.3658538
0.3910345, 0.0243381, 2.268, 0.3525391, 2.268, -0.612793, 2.268, 0.6860352, 2.268, 13.2317076, 2.268, 5, 2.268, 5.5487804
0.3915, 0.0223239, 2.2707, 0.3564453, 2.2707, -0.6103516, 2.2707, 0.6879883, 2.2707, 12.3170738, 2.2707, 3.4146342, 2.2707, 6.0365853
0.3919655, 0.0162814, 2.2734, 0.3632812, 2.2734, -0.6069336, 2.2734, 0.6835938, 2.2734, 12.3780489, 2.2734, 3.1707318, 2.2734, 6.1585369
0.392431, 0.0072175, 2.2761, 0.3603516, 2.2761, -0.6044922, 2.2761, 0.6850586, 2.2761, 11.4024391, 2.2761, 3.1097562, 2.2761, 6.3414636
0.3928966, -0.0010071, 2.2788, 0.3598633, 2.2788, -0.6049805, 2.2788, 0.6850586, 2.2788, 11.4634151, 2.2788, 3.2317073, 2.2788, 6.7073174
0.3933621, -0.0105745, 2.2815, 0.3583984, 2.2815, -0.6079102, 2.2815, 0.6850586, 2.2815, 11.280488, 2.2815, 3.4146342, 2.2815, 7.1951222
0.3938276, -0.0198062, 2.2842, 0.3603516, 2.2842, -0.6025391, 2.2842, 0.6875, 2.2842, 10.9146347, 2.2842, 3.5365853, 2.2842, 7.3170733
0.3942931, -0.0248417, 2.2869, 0.3642578, 2.2869, -0.6035156, 2.2869, 0.6894531, 2.2869, 11.4634151, 2.2869, 3.2926829, 2.2869, 7.7439027
0.3947586, -0.0246738, 2.2896, 0.3579102, 2.2896, -0.609375, 2.2896, 0.6953125, 2.2896, 11.0365858, 2.2896, 2.8658538, 2.2896, 7.6219516
0.3952241, -0.026688, 2.2923, 0.3564453, 2.2923, -0.6103516, 2.2923, 0.7016602, 2.2923, 11.5243902, 2.2923, 1.5243902, 2.2923, 7.6219516
0.3956897, -0.0307164, 2.295, 0.3574219, 2.295, -0.6166992, 2.295, 0.7080078, 2.295, 11.4024391, 2.295, 0.1219512, 2.295, 7.8658538
0.3961552, -0.0327306, 2.2977, 0.3510742, 2.2977, -0.6196289, 2.2977, 0.7138672, 2.2977, 11.280488, 2.2977, -0.6097561, 2.2977, 7.4390244
0.3966207, -0.0322271, 2.3004, 0.3491211, 2.3004, -0.6313477, 2.3004, 0.7255859, 2.3004, 11.4024391, 2.3004, -3.1097562, 2.3004, 7.0121951
0.3970862, -0.0317235, 2.3031, 0.3432617, 2.3031, -0.6347656, 2.3031, 0.7294922, 2.3031, 11.7682934, 2.3031, -4.6951222, 2.3031, 6.6463418
0.3975517, -0.0307164, 2.3058, 0.3447266, 2.3058, -0.6293945, 2.3058, 0.7363281, 2.3058, 11.6463413, 2.3058, -7.3170733, 2.3058, 6.7682929
0.3980172, -0.0283665, 2.3085, 0.3515625, 2.3085, -0.6342773, 2.3085, 0.7387695, 2.3085, 11.8902445, 2.3085, -8.2926826, 2.3085, 6.7682929
0.3984828, -0.0229953, 2.3112, 0.3618164, 2.3112, -0.6342773, 2.3112, 0.7509766, 2.3112, 11.4024391, 2.3112, -9.3292685, 2.3112, 6.280488
0.3989483, -0.0182956, 2.3139, 0.371582, 2.3139, -0.6308594, 2.3139, 0.7573242, 2.3139, 11.7073174, 2.3139, -8.9634151, 2.3139, 6.6463418
0.3994138, -0.0236667, 2.3166, 0.3764648, 2.3166, -0.6328125, 2.3166, 0.7636719, 2.3166, 12.5, 2.3166, -9.0853662, 2.3166, 6.4634147
0.3998793, -0.0263523, 2.3193, 0.3857422, 2.3193, -0.6264648, 2.3193, 0.7670898, 2.3193, 12.4390249, 2.3193, -8.9634151, 2.3193, 5.9146342
0.4003448, -0.0181277, 2.322, 0.3886719, 2.322, -0.6220703, 2.322, 0.7666016, 2.322, 13.5975609, 2.322, -8.5975609, 2.322, 5.8536587
0.4008103, -0.002182, 2.3247, 0.3881836, 2.3247, -0.6210938, 2.3247, 0.765625, 2.3247, 13.1097565, 2.3247, -7.9268293, 2.3247, 5.7317076
0.4012759, 0.011078, 2.3274, 0.3867188, 2.3274, -0.621582, 2.3274, 0.7675781, 2.3274, 13.5365858, 2.3274, -7.0731707, 2.3274, 5.9146342
0.4017414, 0.0186313, 2.3301, 0.3813477, 2.3301, -0.6230469, 2.3301, 0.7626953, 2.3301, 13.780488, 2.3301, -6.4024391, 2.3301, 6.280488
0.4022069, 0.0203098, 2.3328, 0.3779297, 2.3328, -0.6176758, 2.3328, 0.7597656, 2.3328, 14.7560978, 2.3328, -5.9756098, 2.3328, 6.5853658
0.4026724, 0.0159457, 2.3355, 0.3681641, 2.3355, -0.6166992, 2.3355, 0.7573242, 2.3355, 14.5121956, 2.3355, -5.4268293, 2.3355, 6.5243902
0.4031379, 0.0085603, 2.3382, 0.3701172, 2.3382, -0.6118164, 2.3382, 0.7548828, 2.3382, 15.1829271, 2.3382, -4.6951222, 2.3382, 6.9512196
0.4036034, 0.0020142, 2.3409, 0.3769531, 2.3409, -0.6123047, 2.3409, 0.7548828, 2.3409, 16.1585369, 2.3409, -3.9634147, 2.3409, 7.2560978
0.404069, -0.0036927, 2.3436, 0.3740234, 2.3436, -0.6162109, 2.3436, 0.7578125, 2.3436, 16.3414631, 2.3436, -4.2073174, 2.3436, 6.7682929
0.4045345, -0.0078889, 2.3463, 0.3735352, 2.3463, -0.6147461, 2.3463, 0.7573242, 2.3463, 17.0121956, 2.3463, -4.2073174, 2.3463, 6.5243902
0.405, -0.0102388, 2.349, 0.3720703, 2.349, -0.6181641, 2.349, 0.7597656, 2.349, 16.9512196, 2.349, -4.1463413, 2.349, 5.8536587
0.4054655, -0.0109102, 2.3517, 0.3657227, 2.3517, -0.6142578, 2.3517, 0.7695312, 2.3517, 17.1341476, 2.3517, -4.6341462, 2.3517, 5.3048782
0.405931, -0.0115816, 2.3544, 0.3603516, 2.3544, -0.6181641, 2.3544, 0.7749023, 2.3544, 17.5, 2.3544, -5.1219511, 2.3544, 5
0.4063966, -0.0125887, 2.3571, 0.3666992, 2.3571, -0.6098633, 2.3571, 0.7802734, 2.3571, 17.9878044, 2.3571, -5.8536587, 2.3571, 5.2439027
0.4068621, -0.0137636, 2.3598, 0.3725586, 2.3598, -0.6074219, 2.3598, 0.7807617, 2.3598, 18.4756107, 2.3598, -5.8536587, 2.3598, 5.0609756
0.4073276, -0.0149386, 2.3625, 0.3720703, 2.3625, -0.6040039, 2.3625, 0.7861328, 2.3625, 18.6585369, 2.3625, -5.9146342, 2.3625, 4.8170733
0.4077931, -0.01561, 2.3652, 0.3754883, 2.3652, -0.5961914, 2.3652, 0.7822266, 2.3652, 18.3536587, 2.3652, -5.9756098, 2.3652, 4.7560978
